Device Type,GENEActiv,,,,,
Device Model,1.2,,,,,
Device Unique Serial Code,111806,,,,,
Device Firmware Version,Ver06.17 15June23,,,,,
Calibration Date,2025-03-17 06:31:29:000,,,,,
Application name & version,GeneaLibrary,,,,,
,,,,,,
,,,,,,
,,,,,,
,,,,,,
Measurement Frequency,100 Hz,,,,,
Start Time,2026-07-30 12:07:00:000,,,,,
Last measurement,,,,,,
Device Location Code,,,,,,
Time Zone,GMT -04:00,,,,,
,,,,,,
,,,,,,
,,,,,,
,,,,,,
,,,,,,
Subject Code,,,,,,
Date of Birth,1900-01-01,,,,,
Sex,,,,,,
Height,,,,,,
Weight,,,,,,
Handedness Code,,,,,,
Subject Notes,,,,,,
,,,,,,
,,,,,,
,,,,,,
Study Centre,,,,,,
Study Code,,,,,,
Investigator ID,,,,,,
Exercise Type,,,,,,
Config Operator ID,,,,,,
Config Time,2026-07-30 12:06:11:824,,,,,
Config Notes,,,,,,
Extract Operator ID,,,,,,
Extract Time,2026-07-30 12:16:07:452,,,,,
Extract Notes,,,,,,
,,,,,,
,,,,,,
,,,,,,
,,,,,,
,,,,,,
,,,,,,
,,,,,,
,,,,,,
,,,,,,
,,,,,,
Sensor type,MEMS accelerometer x-axis,,,,,
Range,-8 to 8,,,,,
Resolution,0.0039,,,,,
Units,g,,,,,
Additional information,,,,,,
Sensor type,MEMS accelerometer y-axis,,,,,
Range,-8 to 8,,,,,
Resolution,0.0039,,,,,
Units,g,,,,,
Additional information,,,,,,
Sensor type,MEMS accelerometer z-axis,,,,,
Range,-8 to 8,,,,,
Resolution,0.0039,,,,,
Units,g,,,,,
Additional information,,,,,,
Sensor type,Lux Photodiode 400nm - 1100nm,,,,,
Range,0 to 20000,,,,,
Resolution,3 to 48,,,,,
Units,lux,,,,,
Additional information,,,,,,
Sensor type,User button event marker,,,,,
Range,1 or 0,,,,,
Resolution,,,,,,
Units,,,,,,
Additional information,1=pressed,,,,,
Sensor type,Linear active thermistor,,,,,
Range,0 to 70,,,,,
Resolution,0.1,,,,,
Units,deg. C,,,,,
Additional information,,,,,,
,,,,,,
,,,,,,
,,,,,,
,,,,,,
,,,,,,
,,,,,,
,,,,,,
,,,,,,
,,,,,,
,,,,,,
,,,,,,
,,,,,,
,,,,,,
,,,,,,
,,,,,,
,,,,,,
,,,,,,
,,,,,,
,,,,,,
,,,,,,
2026-07-30 12:07:00:000,-0.3898,0.1355,-0.8873,368,0,28.2
2026-07-30 12:07:00:010,-0.4053,0.1393,-0.8991,364,0,28.2
2026-07-30 12:07:00:020,-0.4169,0.1355,-0.8873,364,0,28.2
2026-07-30 12:07:00:030,-0.4092,0.1317,-0.9031,364,0,28.2
2026-07-30 12:07:00:040,-0.4092,0.124,-0.907,356,0,28.2
2026-07-30 12:07:00:050,-0.4169,0.1393,-0.907,356,0,28.2
2026-07-30 12:07:00:060,-0.3976,0.1508,-0.8991,352,0,28.2
2026-07-30 12:07:00:070,-0.4014,0.1508,-0.8991,352,0,28.2
2026-07-30 12:07:00:080,-0.3937,0.1431,-0.8991,352,0,28.2
2026-07-30 12:07:00:090,-0.4131,0.1431,-0.8912,356,0,28.2
2026-07-30 12:07:00:100,-0.4014,0.1317,-0.8952,356,0,28.2
2026-07-30 12:07:00:110,-0.4014,0.1355,-0.8912,356,0,28.2
2026-07-30 12:07:00:120,-0.4285,0.1546,-0.8675,364,0,28.2
2026-07-30 12:07:00:130,-0.4014,0.1202,-0.8873,364,0,28.2
2026-07-30 12:07:00:140,-0.3821,0.1355,-0.8991,364,0,28.2
2026-07-30 12:07:00:150,-0.4092,0.1355,-0.8991,364,0,28.2
2026-07-30 12:07:00:160,-0.3898,0.1355,-0.907,364,0,28.2
2026-07-30 12:07:00:170,-0.3937,0.124,-0.8912,360,0,28.2
2026-07-30 12:07:00:180,-0.4053,0.1431,-0.8873,360,0,28.2
2026-07-30 12:07:00:190,-0.4014,0.1355,-0.8794,360,0,28.2
2026-07-30 12:07:00:200,-0.3976,0.147,-0.8912,352,0,28.2
2026-07-30 12:07:00:210,-0.3937,0.1355,-0.8873,352,0,28.2
2026-07-30 12:07:00:220,-0.4092,0.1508,-0.8873,352,0,28.2
2026-07-30 12:07:00:230,-0.3937,0.1508,-0.8912,352,0,28.2
2026-07-30 12:07:00:240,-0.4053,0.1317,-0.911,352,0,28.2
2026-07-30 12:07:00:250,-0.4014,0.1355,-0.8952,356,0,28.2
2026-07-30 12:07:00:260,-0.4131,0.1355,-0.8873,356,0,28.2
2026-07-30 12:07:00:270,-0.4131,0.1355,-0.8952,356,0,28.2
2026-07-30 12:07:00:280,-0.4014,0.1355,-0.9031,364,0,28.2
2026-07-30 12:07:00:290,-0.4053,0.1317,-0.8991,364,0,28.2
2026-07-30 12:07:00:300,-0.3937,0.147,-0.8952,364,0,28.2
2026-07-30 12:07:00:310,-0.3937,0.147,-0.907,364,0,28.2
2026-07-30 12:07:00:320,-0.3937,0.1431,-0.9031,364,0,28.2
2026-07-30 12:07:00:330,-0.3859,0.1278,-0.9031,360,0,28.2
2026-07-30 12:07:00:340,-0.3898,0.147,-0.907,360,0,28.2
2026-07-30 12:07:00:350,-0.4014,0.1431,-0.9031,360,0,28.2
2026-07-30 12:07:00:360,-0.4092,0.1278,-0.907,352,0,28.2
2026-07-30 12:07:00:370,-0.3976,0.1278,-0.8794,352,0,28.2
2026-07-30 12:07:00:380,-0.4053,0.1317,-0.9031,352,0,28.2
2026-07-30 12:07:00:390,-0.4053,0.1278,-0.9031,352,0,28.2
2026-07-30 12:07:00:400,-0.4092,0.1278,-0.8873,352,0,28.2
2026-07-30 12:07:00:410,-0.4131,0.1431,-0.8952,360,0,28.2
2026-07-30 12:07:00:420,-0.3898,0.1317,-0.8794,360,0,28.2
2026-07-30 12:07:00:430,-0.3937,0.1278,-0.8912,360,0,28.2
2026-07-30 12:07:00:440,-0.4053,0.1355,-0.8912,364,0,28.2
2026-07-30 12:07:00:450,-0.3976,0.1202,-0.8952,364,0,28.2
2026-07-30 12:07:00:460,-0.3937,0.1355,-0.8754,364,0,28.2
2026-07-30 12:07:00:470,-0.3976,0.1431,-0.911,364,0,28.2
2026-07-30 12:07:00:480,-0.3937,0.1393,-0.8991,364,0,28.2
2026-07-30 12:07:00:490,-0.3666,0.1393,-0.9387,360,0,28.2
2026-07-30 12:07:00:500,-0.3472,0.1278,-0.9229,360,0,28.2
2026-07-30 12:07:00:510,-0.3666,0.1278,-0.907,352,0,28.2
2026-07-30 12:07:00:520,-0.4131,0.1278,-0.9031,352,0,28.2
2026-07-30 12:07:00:530,-0.3898,0.124,-0.9268,352,0,28.2
2026-07-30 12:07:00:540,-0.3782,0.1164,-0.9031,356,0,28.2
2026-07-30 12:07:00:550,-0.3666,0.1355,-0.8952,356,0,28.2
2026-07-30 12:07:00:560,-0.3859,0.1278,-0.8873,356,0,28.2
2026-07-30 12:07:00:570,-0.3898,0.1317,-0.907,360,0,28.2
2026-07-30 12:07:00:580,-0.3743,0.1202,-0.9268,360,0,28.2
2026-07-30 12:07:00:590,-0.3627,0.1202,-0.911,368,0,28.2
2026-07-30 12:07:00:600,-0.3588,0.1278,-0.8991,368,0,28.2
2026-07-30 12:07:00:610,-0.3704,0.1355,-0.911,368,0,28.2
2026-07-30 12:07:00:620,-0.3123,0.1011,-0.8794,364,0,28.2
2026-07-30 12:07:00:630,-0.3278,0.1202,-0.9426,364,0,28.2
2026-07-30 12:07:00:640,-0.2891,0.0782,-0.9268,364,0,28.2
2026-07-30 12:07:00:650,-0.3472,0.0896,-0.8873,360,0,28.2
2026-07-30 12:07:00:660,-0.3937,0.1278,-0.9031,360,0,28.2
2026-07-30 12:07:00:670,-0.4363,0.1508,-0.8873,356,0,28.2
2026-07-30 12:07:00:680,-0.4944,0.1699,-0.8991,356,0,28.2
2026-07-30 12:07:00:690,-0.5331,0.1622,-0.8833,356,0,28.2
2026-07-30 12:07:00:700,-0.5564,0.1622,-0.8715,360,0,28.2
2026-07-30 12:07:00:710,-0.5176,0.1431,-0.8596,360,0,28.2
2026-07-30 12:07:00:720,-0.4983,0.147,-0.8557,360,0,28.2
2026-07-30 12:07:00:730,-0.506,0.1202,-0.832,368,0,28.2
2026-07-30 12:07:00:740,-0.4867,0.1317,-0.8636,368,0,28.2
2026-07-30 12:07:00:750,-0.4712,0.1508,-0.8991,376,0,28.2
2026-07-30 12:07:00:760,-0.4363,0.1584,-0.8715,376,0,28.2
2026-07-30 12:07:00:770,-0.4479,0.1546,-0.8596,376,0,28.2
2026-07-30 12:07:00:780,-0.475,0.147,-0.8873,372,0,28.2
2026-07-30 12:07:00:790,-0.5215,0.1393,-0.8794,372,0,28.2
2026-07-30 12:07:00:800,-0.537,0.1393,-0.9149,372,0,28.2
2026-07-30 12:07:00:810,-0.5215,0.147,-0.9308,364,0,28.2
2026-07-30 12:07:00:820,-0.5215,0.1278,-0.9347,364,0,28.2
2026-07-30 12:07:00:830,-0.5176,0.1278,-0.9189,360,0,28.2
2026-07-30 12:07:00:840,-0.5176,0.1317,-0.9031,360,0,28.2
2026-07-30 12:07:00:850,-0.4867,0.124,-0.9031,360,0,28.2
2026-07-30 12:07:00:860,-0.4789,0.1355,-0.8833,364,0,28.2
2026-07-30 12:07:00:870,-0.4324,0.1278,-0.9387,364,0,28.2
2026-07-30 12:07:00:880,-0.3859,0.1278,-0.9308,364,0,28.2
2026-07-30 12:07:00:890,-0.4014,0.1126,-0.911,372,0,28.2
2026-07-30 12:07:00:900,-0.4712,0.1011,-0.9347,372,0,28.2
2026-07-30 12:07:00:910,-0.506,0.0361,-1.0217,376,0,28.2
2026-07-30 12:07:00:920,-0.5486,0.0552,-1.1323,376,0,28.2
2026-07-30 12:07:00:930,-0.3821,0.0896,-1.0809,376,0,28.2
2026-07-30 12:07:00:940,-0.2968,0.1087,-1.0177,376,0,28.2
2026-07-30 12:07:00:950,-0.3201,0.1317,-1.0454,376,0,28.2
2026-07-30 12:07:00:960,-0.2968,0.1622,-1.0335,380,0,28.2
2026-07-30 12:07:00:970,-0.2155,0.1584,-1.0177,380,0,28.2
2026-07-30 12:07:00:980,-0.2,0.1431,-1.0177,380,0,28.2
2026-07-30 12:07:00:990,-0.293,0.1546,-1.0138,380,0,28.2
2026-07-30 12:07:01:000,-0.3433,0.1355,-1.0098,380,0,28.2
2026-07-30 12:07:01:010,-0.2736,0.1355,-0.994,380,0,28.2
2026-07-30 12:07:01:020,-0.2039,0.1584,-0.8991,384,0,28.2
2026-07-30 12:07:01:030,-0.1613,0.2157,-0.8794,384,0,28.2
2026-07-30 12:07:01:040,-0.1303,0.2272,-0.8952,392,0,28.2
2026-07-30 12:07:01:050,-0.107,0.2463,-0.9308,392,0,28.2
2026-07-30 12:07:01:060,-0.0722,0.1966,-0.9663,392,0,28.2
2026-07-30 12:07:01:070,-0.0334,0.1699,-0.9545,408,0,28.2
2026-07-30 12:07:01:080,-0.0567,0.124,-0.9545,408,0,28.2
2026-07-30 12:07:01:090,-0.107,0.1508,-0.9545,408,0,28.2
2026-07-30 12:07:01:100,-0.1341,0.1431,-0.9821,396,0,28.2
2026-07-30 12:07:01:110,-0.0993,0.1317,-0.9821,396,0,28.2
2026-07-30 12:07:01:120,-0.0683,0.124,-0.9742,388,0,28.2
2026-07-30 12:07:01:130,-0.0024,0.1202,-0.9466,388,0,28.2
2026-07-30 12:07:01:140,0.0983,0.1164,-0.9229,388,0,28.2
2026-07-30 12:07:01:150,0.1409,0.1317,-0.9031,388,0,28.2
2026-07-30 12:07:01:160,0.1409,0.1355,-0.911,388,0,28.2
2026-07-30 12:07:01:170,0.1176,0.1164,-0.9031,388,0,28.2
2026-07-30 12:07:01:180,0.1331,0.1317,-0.9149,408,0,28.2
2026-07-30 12:07:01:190,0.1486,0.1087,-0.9268,408,0,28.2
2026-07-30 12:07:01:200,0.1525,0.1126,-0.9268,416,0,28.2
2026-07-30 12:07:01:210,0.1564,0.0973,-0.9229,416,0,28.2
2026-07-30 12:07:01:220,0.1603,0.1087,-0.911,416,0,28.2
2026-07-30 12:07:01:230,0.1874,0.1049,-0.911,416,0,28.2
2026-07-30 12:07:01:240,0.1951,0.0782,-0.8399,416,0,28.2
2026-07-30 12:07:01:250,0.199,0.0591,-0.8675,416,0,28.2
2026-07-30 12:07:01:260,0.2261,0.0514,-0.8794,404,0,28.2
2026-07-30 12:07:01:270,0.2184,0.0438,-0.911,404,0,28.2
2026-07-30 12:07:01:280,0.2067,0.0323,-0.9466,388,0,28.2
2026-07-30 12:07:01:290,0.2184,0.0132,-0.9703,388,0,28.2
2026-07-30 12:07:01:300,0.1951,0.0056,-0.9624,388,0,28.2
2026-07-30 12:07:01:310,0.199,0.0132,-0.9584,388,0,28.2
2026-07-30 12:07:01:320,0.2029,0.0132,-0.9426,388,0,28.2
2026-07-30 12:07:01:330,0.2106,0.0018,-0.907,388,0,28.2
2026-07-30 12:07:01:340,0.1874,0.0094,-0.8991,392,0,28.2
2026-07-30 12:07:01:350,0.2184,-0.0097,-0.9229,392,0,28.2
2026-07-30 12:07:01:360,0.2803,-0.0059,-0.8991,404,0,28.2
2026-07-30 12:07:01:370,0.3036,-0.0212,-0.911,404,0,28.2
2026-07-30 12:07:01:380,0.3307,-0.0173,-0.8557,404,0,28.2
2026-07-30 12:07:01:390,0.3075,0.0132,-0.8912,404,0,28.2
2026-07-30 12:07:01:400,0.3036,-0.0441,-0.8873,404,0,28.2
2026-07-30 12:07:01:410,0.3191,-0.0326,-0.8912,404,0,28.2
2026-07-30 12:07:01:420,0.3346,-0.0326,-0.907,392,0,28.2
2026-07-30 12:07:01:430,0.3384,-0.0517,-0.9229,392,0,28.2
2026-07-30 12:07:01:440,0.3346,-0.0708,-0.9347,388,0,28.2
2026-07-30 12:07:01:450,0.3501,-0.067,-0.9545,388,0,28.2
2026-07-30 12:07:01:460,0.3423,-0.0747,-0.9584,388,0,28.2
2026-07-30 12:07:01:470,0.323,-0.0556,-0.9584,392,0,28.2
2026-07-30 12:07:01:480,0.3113,-0.0403,-0.9387,392,0,28.2
2026-07-30 12:07:01:490,0.3346,-0.0135,-0.9189,408,0,28.2
2026-07-30 12:07:01:500,0.3384,-0.0173,-0.9229,408,0,28.2
2026-07-30 12:07:01:510,0.3656,-0.0326,-0.8912,408,0,28.2
2026-07-30 12:07:01:520,0.3772,-0.0365,-0.8952,412,0,28.2
2026-07-30 12:07:01:530,0.3578,-0.0403,-0.8754,412,0,28.2
2026-07-30 12:07:01:540,0.3346,-0.0212,-0.8873,412,0,28.2
2026-07-30 12:07:01:550,0.3423,-0.0135,-0.8912,412,0,28.2
2026-07-30 12:07:01:560,0.3811,-0.0479,-0.8873,412,0,28.2
2026-07-30 12:07:01:570,0.3423,-0.0517,-0.9031,404,0,28.2
2026-07-30 12:07:01:580,0.3268,-0.0212,-0.9149,404,0,28.2
2026-07-30 12:07:01:590,0.2997,0.0056,-0.8873,404,0,28.2
2026-07-30 12:07:01:600,0.3346,-0.025,-0.9149,396,0,28.2
2026-07-30 12:07:01:610,0.3772,0.0056,-0.8794,396,0,28.2
2026-07-30 12:07:01:620,0.3578,0.04,-0.8833,396,0,28.2
2026-07-30 12:07:01:630,0.2687,0.0782,-0.8991,408,0,28.2
2026-07-30 12:07:01:640,0.292,0.0285,-0.9149,408,0,28.2
2026-07-30 12:07:01:650,0.3075,0.0094,-0.9347,416,0,28.2
2026-07-30 12:07:01:660,0.1912,-0.0135,-0.9742,416,0,28.2
2026-07-30 12:07:01:670,0.2648,-0.0059,-0.8715,416,0,28.2
2026-07-30 12:07:01:680,0.3036,0.0361,-0.9229,420,0,28.2
2026-07-30 12:07:01:690,0.2997,0.0018,-0.9189,420,0,28.2
2026-07-30 12:07:01:700,0.2958,0.0247,-0.9426,420,0,28.2
2026-07-30 12:07:01:710,0.3036,0.0094,-0.911,416,0,28.2
2026-07-30 12:07:01:720,0.2803,0.0132,-0.9189,416,0,28.2
2026-07-30 12:07:01:730,0.2765,0.0667,-0.9229,408,0,28.2
2026-07-30 12:07:01:740,0.323,0.0438,-0.9426,408,0,28.2
2026-07-30 12:07:01:750,0.3462,0.0056,-0.9229,408,0,28.2
2026-07-30 12:07:01:760,0.323,-0.0021,-0.9229,404,0,28.2
2026-07-30 12:07:01:770,0.3191,0.0094,-0.9189,404,0,28.2
2026-07-30 12:07:01:780,0.3113,-0.0059,-0.9229,404,0,28.2
2026-07-30 12:07:01:790,0.3384,-0.0059,-0.9229,412,0,28.2
2026-07-30 12:07:01:800,0.323,-0.0403,-0.9268,412,0,28.2
2026-07-30 12:07:01:810,0.3307,-0.0326,-0.9505,420,0,28.2
2026-07-30 12:07:01:820,0.3539,0.0247,-0.9229,420,0,28.2
2026-07-30 12:07:01:830,0.3423,0.0705,-0.8952,420,0,28.2
2026-07-30 12:07:01:840,0.323,0.1278,-0.8675,420,0,28.2
2026-07-30 12:07:01:850,0.2958,0.04,-0.8952,420,0,28.2
2026-07-30 12:07:01:860,0.3075,0.0018,-0.9031,416,0,28.2
2026-07-30 12:07:01:870,0.3268,0.0056,-0.9229,416,0,28.2
2026-07-30 12:07:01:880,0.323,0.0094,-0.8991,416,0,28.2
2026-07-30 12:07:01:890,0.3462,0.0247,-0.8991,408,0,28.2
2026-07-30 12:07:01:900,0.3617,0.0247,-0.8833,408,0,28.2
2026-07-30 12:07:01:910,0.3733,0.0476,-0.8794,408,0,28.2
2026-07-30 12:07:01:920,0.3617,0.0438,-0.8754,404,0,28.2
2026-07-30 12:07:01:930,0.3849,0.0667,-0.8794,404,0,28.2
2026-07-30 12:07:01:940,0.3888,0.0552,-0.8833,408,0,28.2
2026-07-30 12:07:01:950,0.3811,0.0438,-0.907,408,0,28.2
2026-07-30 12:07:01:960,0.3966,0.04,-0.8794,408,0,28.2
2026-07-30 12:07:01:970,0.3966,0.0361,-0.9149,416,0,28.2
2026-07-30 12:07:01:980,0.3617,0.04,-0.9149,416,0,28.2
2026-07-30 12:07:01:990,0.3927,0.0323,-0.8991,416,0,28.2
2026-07-30 12:07:02:000,0.3927,0.0514,-0.8952,416,0,28.2
2026-07-30 12:07:02:010,0.3772,0.0361,-0.9229,416,0,28.2
2026-07-30 12:07:02:020,0.3772,0.017,-0.5632,408,0,28.2
2026-07-30 12:07:02:030,0.536,-0.0021,-0.8873,408,0,28.2
2026-07-30 12:07:02:040,0.1951,-0.1434,-0.9031,408,0,28.2
2026-07-30 12:07:02:050,0.0092,-0.216,-0.9821,404,0,28.2
2026-07-30 12:07:02:060,0.1215,-0.2084,-0.9703,404,0,28.2
2026-07-30 12:07:02:070,0.2067,-0.1396,-0.9466,404,0,28.2
2026-07-30 12:07:02:080,0.2455,-0.0556,-0.9545,404,0,28.2
2026-07-30 12:07:02:090,0.199,-0.0288,-0.9387,404,0,28.2
2026-07-30 12:07:02:100,0.1564,-0.0288,-0.9624,412,0,28.2
2026-07-30 12:07:02:110,0.1719,-0.0441,-0.9466,412,0,28.2
2026-07-30 12:07:02:120,0.2765,-0.025,-0.9149,412,0,28.2
2026-07-30 12:07:02:130,0.3191,-0.0326,-0.8952,416,0,28.2
2026-07-30 12:07:02:140,0.3539,-0.0441,-0.8636,416,0,28.2
2026-07-30 12:07:02:150,0.3539,-0.0479,-0.907,416,0,28.2
2026-07-30 12:07:02:160,0.3384,-0.0441,-0.8833,412,0,28.2
2026-07-30 12:07:02:170,0.3268,-0.0135,-0.9031,412,0,28.2
2026-07-30 12:07:02:180,0.3075,-0.0021,-0.9149,404,0,28.2
2026-07-30 12:07:02:190,0.3075,-0.0021,-0.911,404,0,28.2
2026-07-30 12:07:02:200,0.2377,-0.0021,-0.8557,404,0,28.2
2026-07-30 12:07:02:210,0.1951,-0.0173,-0.8873,396,0,28.2
2026-07-30 12:07:02:220,0.1874,-0.0135,-0.9426,396,0,28.2
2026-07-30 12:07:02:230,0.2222,0.0056,-0.9663,396,0,28.2
2026-07-30 12:07:02:240,0.2571,0.0132,-0.9584,396,0,28.2
2026-07-30 12:07:02:250,0.2726,0.0247,-0.9584,396,0,28.2
2026-07-30 12:07:02:260,0.2648,0.0247,-0.8675,408,0,28.2
2026-07-30 12:07:02:270,0.2571,0.0247,-0.8478,408,0,28.2
2026-07-30 12:07:02:280,0.2145,0.0285,-0.8794,408,0,28.2
2026-07-30 12:07:02:290,0.1874,0.0323,-0.9189,416,0,28.2
2026-07-30 12:07:02:300,0.1758,0.0323,-0.9782,416,0,28.2
2026-07-30 12:07:02:310,0.1951,0.0056,-1.0138,416,0,28.2
2026-07-30 12:07:02:320,0.2377,0.0209,-1.0019,412,0,28.2
2026-07-30 12:07:02:330,0.2222,0.0209,-0.9782,412,0,28.2
2026-07-30 12:07:02:340,0.1758,0.0361,-0.9347,408,0,28.2
2026-07-30 12:07:02:350,0.1486,0.0514,-0.9229,408,0,28.2
2026-07-30 12:07:02:360,0.1215,0.0438,-0.9308,408,0,28.2
2026-07-30 12:07:02:370,0.1138,0.0056,-0.9189,404,0,28.2
2026-07-30 12:07:02:380,0.0673,0.0018,-0.9545,404,0,28.2
2026-07-30 12:07:02:390,0.0518,-0.0326,-0.994,408,0,28.2
2026-07-30 12:07:02:400,0.0712,-0.0173,-1.0058,408,0,28.2
2026-07-30 12:07:02:410,0.137,0.0018,-1.0019,408,0,28.2
2026-07-30 12:07:02:420,0.1448,0.0132,-0.9861,420,0,28.2
2026-07-30 12:07:02:430,0.0983,-0.0021,-0.994,420,0,28.2
2026-07-30 12:07:02:440,0.0634,-0.025,-1.0138,420,0,28.2
2026-07-30 12:07:02:450,0.0557,-0.0441,-1.0098,424,0,28.2
2026-07-30 12:07:02:460,0.0867,-0.0594,-0.99,424,0,28.2
2026-07-30 12:07:02:470,0.1099,-0.0632,-1.0019,424,0,28.2
2026-07-30 12:07:02:480,0.2029,-0.0326,-0.8596,424,0,28.2
2026-07-30 12:07:02:490,0.1951,0.0018,-0.8478,424,0,28.2
2026-07-30 12:07:02:500,0.1215,0.0285,-0.8912,412,0,28.2
2026-07-30 12:07:02:510,-0.0334,0.0018,-0.9979,412,0,28.2
2026-07-30 12:07:02:520,-0.1729,-0.0365,-1.077,412,0,28.2
2026-07-30 12:07:02:530,-0.2039,-0.1129,-1.1323,408,0,28.2
2026-07-30 12:07:02:540,-0.1303,-0.1014,-1.1165,408,0,28.2
2026-07-30 12:07:02:550,-0.0528,-0.0517,-1.1205,408,0,28.2
2026-07-30 12:07:02:560,0.0014,0.0132,-1.1007,408,0,28.2
2026-07-30 12:07:02:570,0.0324,0.0552,-1.077,408,0,28.2
2026-07-30 12:07:02:580,0.044,0.0629,-1.0414,416,0,28.2
2026-07-30 12:07:02:590,0.0518,0.04,-1.0533,416,0,28.2
2026-07-30 12:07:02:600,0.0479,0.0247,-1.0335,416,0,28.2
2026-07-30 12:07:02:610,0.0479,0.0094,-1.0651,420,0,28.2
2026-07-30 12:07:02:620,0.0557,-0.0059,-1.0651,420,0,28.2
2026-07-30 12:07:02:630,0.0673,0.0361,-1.0493,416,0,28.2
2026-07-30 12:07:02:640,0.0673,0.0705,-1.0256,416,0,28.2
2026-07-30 12:07:02:650,0.0673,0.0973,-1.0138,416,0,28.2
2026-07-30 12:07:02:660,0.0673,0.0935,-1.0098,408,0,28.2
2026-07-30 12:07:02:670,0.0285,0.0629,-1.0454,408,0,28.2
2026-07-30 12:07:02:680,0.0324,0.0361,-1.0335,408,0,28.2
2026-07-30 12:07:02:690,0.0324,0.0361,-1.0454,404,0,28.2
2026-07-30 12:07:02:700,0.0518,0.0247,-1.0414,404,0,28.2
2026-07-30 12:07:02:710,0.0712,0.0514,-1.0335,412,0,28.2
2026-07-30 12:07:02:720,0.0867,0.0744,-1.0296,412,0,28.2
2026-07-30 12:07:02:730,0.1215,0.1049,-1.0019,412,0,28.2
2026-07-30 12:07:02:740,0.1254,0.0973,-0.9861,420,0,28.2
2026-07-30 12:07:02:750,0.0828,0.124,-1.0019,420,0,28.2
2026-07-30 12:07:02:760,0.0324,0.0896,-1.0177,420,0,28.2
2026-07-30 12:07:02:770,0.0479,0.0629,-1.0651,420,0,28.2
2026-07-30 12:07:02:780,0.0673,0.082,-1.0691,420,0,28.2
2026-07-30 12:07:02:790,0.0828,0.124,-1.0414,416,0,28.2
2026-07-30 12:07:02:800,0.0518,0.1011,-1.0256,416,0,28.2
2026-07-30 12:07:02:810,0.0402,0.1049,-0.99,416,0,28.2
2026-07-30 12:07:02:820,0.0673,0.124,-0.9821,408,0,28.2
2026-07-30 12:07:02:830,0.137,0.1087,-0.8873,408,0,28.2
2026-07-30 12:07:02:840,0.1138,0.0935,-0.8715,408,0,28.2
2026-07-30 12:07:02:850,0.0479,0.0896,-0.9703,412,0,28.2
2026-07-30 12:07:02:860,0.0247,0.0858,-1.0138,412,0,28.2
2026-07-30 12:07:02:870,0.0479,0.082,-1.0454,420,0,28.2
2026-07-30 12:07:02:880,0.075,0.1278,-1.0375,420,0,28.2
2026-07-30 12:07:02:890,0.0712,0.1431,-1.0177,420,0,28.2
2026-07-30 12:07:02:900,0.0557,0.1355,-1.0177,428,0,28.2
2026-07-30 12:07:02:910,0.044,0.1202,-0.99,428,0,28.2
2026-07-30 12:07:02:920,0.0363,0.1278,-0.99,428,0,28.2
2026-07-30 12:07:02:930,0.0634,0.1317,-0.9782,428,0,28.2
2026-07-30 12:07:02:940,0.0828,0.1317,-0.9624,428,0,28.2
2026-07-30 12:07:02:950,0.0789,0.1202,-0.9426,424,0,28.2
2026-07-30 12:07:02:960,0.075,0.1317,-0.9466,424,0,28.2
2026-07-30 12:07:02:970,0.0789,0.1164,-0.9308,424,0,28.2
2026-07-30 12:07:02:980,0.0905,0.1202,-0.911,416,0,28.2
2026-07-30 12:07:02:990,0.0712,0.124,-0.9189,416,0,28.2
2026-07-30 12:07:03:000,0.0324,0.1087,-0.907,420,0,28.2
2026-07-30 12:07:03:010,0.0363,0.124,-0.907,420,0,28.2
2026-07-30 12:07:03:020,0.0363,0.1126,-0.907,428,0,28.2
2026-07-30 12:07:03:030,0.0479,0.1049,-0.9426,428,0,28.2
2026-07-30 12:07:03:040,0.0518,0.1164,-0.9268,428,0,28.2
2026-07-30 12:07:03:050,0.0402,0.1049,-0.9189,432,0,28.2
2026-07-30 12:07:03:060,-0.0102,0.1011,-0.9189,432,0,28.2
2026-07-30 12:07:03:070,-0.0063,0.082,-0.9149,432,0,28.2
2026-07-30 12:07:03:080,0.0014,0.0858,-0.9031,432,0,28.2
2026-07-30 12:07:03:090,0.0169,0.0858,-0.8952,432,0,28.2
2026-07-30 12:07:03:100,0.0169,0.0782,-0.8873,420,0,28.2
2026-07-30 12:07:03:110,0.0014,0.0744,-0.907,420,0,28.2
2026-07-30 12:07:03:120,-0.0218,0.0858,-0.9387,420,0,28.2
2026-07-30 12:07:03:130,-0.0024,0.0744,-0.9149,412,0,28.2
2026-07-30 12:07:03:140,0.0169,0.0896,-0.9466,412,0,28.2
2026-07-30 12:07:03:150,-0.0063,0.0896,-0.9821,412,0,28.2
2026-07-30 12:07:03:160,0.0014,0.1126,-1.0098,416,0,28.2
2026-07-30 12:07:03:170,0.0247,0.1164,-1.0375,416,0,28.2
2026-07-30 12:07:03:180,0.0595,0.1049,-0.9821,420,0,28.2
2026-07-30 12:07:03:190,0.0673,0.1049,-0.9782,420,0,28.2
2026-07-30 12:07:03:200,0.0247,0.1011,-0.9584,420,0,28.2
2026-07-30 12:07:03:210,0.0285,0.1317,-0.9663,424,0,28.2
2026-07-30 12:07:03:220,0.0479,0.1355,-0.9861,424,0,28.2
2026-07-30 12:07:03:230,0.0595,0.124,-1.0375,424,0,28.2
2026-07-30 12:07:03:240,0.0673,0.0935,-1.0493,416,0,28.2
2026-07-30 12:07:03:250,0.0363,0.0667,-1.0849,416,0,28.2
2026-07-30 12:07:03:260,0.0169,0.04,-1.0691,408,0,28.2
2026-07-30 12:07:03:270,-0.0024,0.0552,-1.0414,408,0,28.2
2026-07-30 12:07:03:280,0.0053,0.1928,-1.0058,408,0,28.2
2026-07-30 12:07:03:290,0.0479,0.0552,-1.0256,396,0,28.2
2026-07-30 12:07:03:300,0.0789,0.0285,-0.99,396,0,28.2
2026-07-30 12:07:03:310,0.0944,-0.0326,-0.9663,396,0,28.2
2026-07-30 12:07:03:320,0.0712,-0.0288,-0.9742,396,0,28.2
2026-07-30 12:07:03:330,0.0363,-0.0747,-0.99,396,0,28.2
2026-07-30 12:07:03:340,-0.0063,-0.0441,-0.99,408,0,28.2
2026-07-30 12:07:03:350,-0.0528,-0.0556,-1.0296,408,0,28.2
2026-07-30 12:07:03:360,-0.107,0.0018,-1.0454,408,0,28.2
2026-07-30 12:07:03:370,-0.1187,-0.0135,-1.0217,412,0,28.2
2026-07-30 12:07:03:380,-0.0877,-0.0403,-1.0058,412,0,28.2
2026-07-30 12:07:03:390,-0.0954,-0.0288,-1.0098,404,0,28.2
2026-07-30 12:07:03:400,-0.0489,-0.025,-0.99,404,0,28.2
2026-07-30 12:07:03:410,0.0053,0.017,-0.9663,404,0,28.2
2026-07-30 12:07:03:420,0.0208,0.0018,-0.9624,392,0,28.2
2026-07-30 12:07:03:430,-0.0179,-0.025,-0.9703,392,0,28.2
2026-07-30 12:07:03:440,-0.0644,-0.0556,-0.9466,392,0,28.2
2026-07-30 12:07:03:450,-0.0954,-0.0441,-0.9505,388,0,28.2
2026-07-30 12:07:03:460,-0.0722,0.0209,-0.9426,388,0,28.2
2026-07-30 12:07:03:470,-0.0334,0.0438,-0.9703,392,0,28.2
2026-07-30 12:07:03:480,-0.0218,-0.0135,-1.0019,392,0,28.2
2026-07-30 12:07:03:490,-0.0528,-0.0708,-0.9821,392,0,28.2
2026-07-30 12:07:03:500,-0.0605,-0.0747,-1.0217,404,0,28.2
2026-07-30 12:07:03:510,-0.0722,-0.0403,-0.9624,404,0,28.2
2026-07-30 12:07:03:520,-0.0451,-0.0708,-0.994,404,0,28.2
2026-07-30 12:07:03:530,-0.0334,-0.0823,-0.9782,404,0,28.2
2026-07-30 12:07:03:540,0.0092,-0.1014,-0.9466,404,0,28.2
2026-07-30 12:07:03:550,0.0014,-0.1129,-0.911,396,0,28.2
2026-07-30 12:07:03:560,0.0247,-0.1282,-0.8991,396,0,28.2
2026-07-30 12:07:03:570,0.0092,-0.1587,-0.911,396,0,28.2
2026-07-30 12:07:03:580,-0.0063,-0.1702,-0.9031,388,0,28.2
2026-07-30 12:07:03:590,-0.0644,-0.2046,-0.9584,388,0,28.2
2026-07-30 12:07:03:600,-0.1187,-0.1855,-0.9545,388,0,28.2
2026-07-30 12:07:03:610,-0.1961,-0.1434,-0.9624,384,0,28.2
2026-07-30 12:07:03:620,-0.2155,-0.0708,-0.9584,384,0,28.2
2026-07-30 12:07:03:630,-0.2155,-0.1434,-0.9861,388,0,28.2
2026-07-30 12:07:03:640,-0.2387,-0.1816,-0.9703,388,0,28.2
2026-07-30 12:07:03:650,-0.2039,-0.216,-0.9624,388,0,28.2
2026-07-30 12:07:03:660,-0.138,-0.2313,-0.9742,396,0,28.2
2026-07-30 12:07:03:670,-0.1303,-0.1473,-0.99,396,0,28.2
2026-07-30 12:07:03:680,-0.1419,-0.1396,-0.9782,396,0,28.2
2026-07-30 12:07:03:690,-0.1923,-0.1587,-0.9821,396,0,28.2
2026-07-30 12:07:03:700,-0.2077,-0.1473,-0.9861,396,0,28.2
2026-07-30 12:07:03:710,-0.2349,-0.1969,-1.0256,388,0,28.2
2026-07-30 12:07:03:720,-0.1923,-0.174,-1.0058,388,0,28.2
2026-07-30 12:07:03:730,-0.1884,-0.1052,-0.9742,388,0,28.2
2026-07-30 12:07:03:740,-0.1884,-0.0823,-0.911,384,0,28.2
2026-07-30 12:07:03:750,-0.3046,-0.1014,-0.8912,384,0,28.2
2026-07-30 12:07:03:760,-0.3356,-0.1282,-0.911,380,0,28.2
2026-07-30 12:07:03:770,-0.2813,-0.1358,-0.9545,380,0,28.2
2026-07-30 12:07:03:780,-0.1884,-0.109,-0.994,380,0,28.2
2026-07-30 12:07:03:790,-0.138,-0.0938,-0.9979,388,0,28.2
2026-07-30 12:07:03:800,-0.138,-0.0938,-1.0098,388,0,28.2
2026-07-30 12:07:03:810,-0.1651,-0.0632,-0.9979,388,0,28.2
2026-07-30 12:07:03:820,-0.1806,-0.0823,-0.9979,396,0,28.2
2026-07-30 12:07:03:830,-0.1535,-0.0708,-0.9782,396,0,28.2
2026-07-30 12:07:03:840,-0.1419,-0.067,-0.9663,396,0,28.2
2026-07-30 12:07:03:850,-0.2,-0.0938,-0.9624,396,0,28.2
2026-07-30 12:07:03:860,-0.2116,-0.0976,-0.9861,396,0,28.2
2026-07-30 12:07:03:870,-0.2155,-0.109,-0.994,388,0,28.2
2026-07-30 12:07:03:880,-0.1806,-0.1052,-0.9742,388,0,28.2
2026-07-30 12:07:03:890,-0.1574,-0.0976,-0.9742,388,0,28.2
2026-07-30 12:07:03:900,-0.138,-0.1014,-0.9782,380,0,28.2
2026-07-30 12:07:03:910,-0.1574,-0.0899,-0.9703,380,0,28.2
2026-07-30 12:07:03:920,-0.1458,-0.0861,-0.9624,384,0,28.2
2026-07-30 12:07:03:930,-0.1496,-0.0785,-0.9624,384,0,28.2
2026-07-30 12:07:03:940,-0.169,-0.0899,-0.9624,384,0,28.2
2026-07-30 12:07:03:950,-0.1845,-0.0938,-0.9545,388,0,28.2
2026-07-30 12:07:03:960,-0.231,-0.1052,-0.9979,388,0,28.2
2026-07-30 12:07:03:970,-0.2155,-0.1129,-0.99,388,0,28.2
2026-07-30 12:07:03:980,-0.2116,-0.109,-0.9861,396,0,28.2
2026-07-30 12:07:03:990,-0.2116,-0.0747,-0.9663,396,0,28.2
2026-07-30 12:07:04:000,-0.2155,-0.1052,-0.9584,392,0,28.2
2026-07-30 12:07:04:010,-0.2232,-0.1014,-0.9545,392,0,28.2
2026-07-30 12:07:04:020,-0.2232,-0.1014,-0.9624,392,0,28.2
2026-07-30 12:07:04:030,-0.2232,-0.1052,-0.9742,384,0,28.2
2026-07-30 12:07:04:040,-0.2039,-0.0899,-0.9703,384,0,28.2
2026-07-30 12:07:04:050,-0.1923,-0.1129,-0.9782,384,0,28.2
2026-07-30 12:07:04:060,-0.2077,-0.109,-0.9545,380,0,28.2
2026-07-30 12:07:04:070,-0.2077,-0.0976,-0.9545,380,0,28.2
2026-07-30 12:07:04:080,-0.1923,-0.1014,-0.9545,384,0,28.2
2026-07-30 12:07:04:090,-0.1961,-0.0899,-0.9624,384,0,28.2
2026-07-30 12:07:04:100,-0.2077,-0.0861,-0.9584,384,0,28.2
2026-07-30 12:07:04:110,-0.2116,-0.0861,-0.9742,388,0,28.2
2026-07-30 12:07:04:120,-0.2155,-0.0785,-0.9782,388,0,28.2
2026-07-30 12:07:04:130,-0.2155,-0.0861,-0.9624,388,0,28.2
2026-07-30 12:07:04:140,-0.2116,-0.0632,-0.9545,392,0,28.2
2026-07-30 12:07:04:150,-0.2116,-0.0976,-0.9505,392,0,28.2
2026-07-30 12:07:04:160,-0.2155,-0.1052,-0.9584,388,0,28.2
2026-07-30 12:07:04:170,-0.2465,-0.0976,-0.9703,388,0,28.2
2026-07-30 12:07:04:180,-0.2232,-0.1014,-0.9584,388,0,28.2
2026-07-30 12:07:04:190,-0.231,-0.0899,-0.9663,380,0,28.2
2026-07-30 12:07:04:200,-0.2039,-0.0747,-0.9545,380,0,28.2
2026-07-30 12:07:04:210,-0.2155,-0.0861,-0.9584,380,0,28.2
2026-07-30 12:07:04:220,-0.231,-0.0823,-0.9782,376,0,28.2
2026-07-30 12:07:04:230,-0.2349,-0.0785,-0.9821,376,0,28.2
2026-07-30 12:07:04:240,-0.2155,-0.0632,-0.9624,380,0,28.2
2026-07-30 12:07:04:250,-0.2194,-0.0747,-0.9545,380,0,28.2
2026-07-30 12:07:04:260,-0.2116,-0.0938,-0.9663,380,0,28.2
2026-07-30 12:07:04:270,-0.2116,-0.0976,-0.9703,388,0,28.2
2026-07-30 12:07:04:280,-0.2039,-0.0823,-0.9624,388,0,28.2
2026-07-30 12:07:04:290,-0.2194,-0.1052,-0.9584,392,0,28.2
2026-07-30 12:07:04:300,-0.2116,-0.0976,-0.9663,392,0,28.2
2026-07-30 12:07:04:310,-0.2387,-0.0785,-0.9703,392,0,28.2
2026-07-30 12:07:04:320,-0.2194,-0.0899,-0.9663,388,0,28.2
2026-07-30 12:07:04:330,-0.2194,-0.0861,-0.9782,388,0,28.2
2026-07-30 12:07:04:340,-0.2194,-0.0785,-0.9505,388,0,28.2
2026-07-30 12:07:04:350,-0.2194,-0.0747,-0.9505,380,0,28.2
2026-07-30 12:07:04:360,-0.231,-0.0861,-0.9663,380,0,28.2
2026-07-30 12:07:04:370,-0.1613,-0.0938,-0.9505,376,0,28.2
2026-07-30 12:07:04:380,-0.2426,-0.0708,-0.9821,376,0,28.2
2026-07-30 12:07:04:390,-0.2116,-0.0365,-0.9584,376,0,28.2
2026-07-30 12:07:04:400,-0.2077,-0.0517,-0.9663,380,0,28.2
2026-07-30 12:07:04:410,-0.2039,-0.0517,-0.9584,380,0,28.2
2026-07-30 12:07:04:420,-0.2077,-0.067,-0.9742,380,0,28.2
2026-07-30 12:07:04:430,-0.2116,-0.0556,-0.9584,388,0,28.2
2026-07-30 12:07:04:440,-0.2077,-0.0594,-0.9663,388,0,28.2
2026-07-30 12:07:04:450,-0.2232,-0.067,-0.9782,388,0,28.2
2026-07-30 12:07:04:460,-0.2116,-0.0747,-0.9545,388,0,28.2
2026-07-30 12:07:04:470,-0.2194,-0.0632,-0.9663,388,0,28.2
2026-07-30 12:07:04:480,-0.2155,-0.0785,-0.9584,384,0,28.2
2026-07-30 12:07:04:490,-0.2077,-0.067,-0.9505,384,0,28.2
2026-07-30 12:07:04:500,-0.1961,-0.0785,-0.9584,384,0,28.2
2026-07-30 12:07:04:510,-0.2077,-0.0823,-0.9703,376,0,28.2
2026-07-30 12:07:04:520,-0.2116,-0.0594,-0.9505,376,0,28.2
2026-07-30 12:07:04:530,-0.2,-0.067,-0.9742,376,0,28.2
2026-07-30 12:07:04:540,-0.2194,-0.0556,-0.9584,376,0,28.2
2026-07-30 12:07:04:550,-0.2155,-0.0556,-0.9663,376,0,28.2
2026-07-30 12:07:04:560,-0.2155,-0.067,-0.9624,380,0,28.2
2026-07-30 12:07:04:570,-0.2232,-0.067,-0.9505,380,0,28.2
2026-07-30 12:07:04:580,-0.2116,-0.0632,-0.9624,380,0,28.2
2026-07-30 12:07:04:590,-0.2232,-0.0594,-0.9703,388,0,28.2
2026-07-30 12:07:04:600,-0.2232,-0.067,-0.9584,388,0,28.2
2026-07-30 12:07:04:610,-0.2116,-0.0517,-0.9742,388,0,28.2
2026-07-30 12:07:04:620,-0.2116,-0.067,-0.9663,388,0,28.2
2026-07-30 12:07:04:630,-0.2155,-0.0594,-0.9387,388,0,28.2
2026-07-30 12:07:04:640,-0.2232,-0.0594,-0.9703,380,0,28.2
2026-07-30 12:07:04:650,-0.231,-0.0594,-0.9703,380,0,28.2
2026-07-30 12:07:04:660,-0.2155,-0.067,-0.9545,380,0,28.2
2026-07-30 12:07:04:670,-0.2116,-0.0594,-0.9742,376,0,28.2
2026-07-30 12:07:04:680,-0.2116,-0.0747,-0.9742,376,0,28.2
2026-07-30 12:07:04:690,-0.2271,-0.0823,-0.9466,376,0,28.2
2026-07-30 12:07:04:700,-0.2232,-0.0632,-0.9545,376,0,28.2
2026-07-30 12:07:04:710,-0.231,-0.0517,-0.99,376,0,28.2
2026-07-30 12:07:04:720,-0.2271,-0.0594,-0.9584,380,0,28.2
2026-07-30 12:07:04:730,-0.2194,-0.0632,-0.9505,380,0,28.2
2026-07-30 12:07:04:740,-0.2232,-0.0632,-0.9742,388,0,28.2
2026-07-30 12:07:04:750,-0.2426,-0.067,-0.9782,388,0,28.2
2026-07-30 12:07:04:760,-0.2155,-0.0708,-0.9545,388,0,28.2
2026-07-30 12:07:04:770,-0.2194,-0.0594,-0.9663,384,0,28.2
2026-07-30 12:07:04:780,-0.2232,-0.0632,-0.9861,384,0,28.2
2026-07-30 12:07:04:790,-0.2387,-0.067,-0.9584,384,0,28.2
2026-07-30 12:07:04:800,-0.2232,-0.0632,-0.9782,380,0,28.2
2026-07-30 12:07:04:810,-0.2271,-0.0517,-0.9663,380,0,28.2
2026-07-30 12:07:04:820,-0.2155,-0.0823,-0.9584,372,0,28.2
2026-07-30 12:07:04:830,-0.2155,-0.0708,-0.9584,372,0,28.2
2026-07-30 12:07:04:840,-0.2232,-0.067,-0.9545,372,0,28.2
2026-07-30 12:07:04:850,-0.2155,-0.0632,-0.9505,376,0,28.2
2026-07-30 12:07:04:860,-0.2194,-0.0708,-0.9624,376,0,28.2
2026-07-30 12:07:04:870,-0.2232,-0.0594,-0.9584,376,0,28.2
2026-07-30 12:07:04:880,-0.231,-0.0556,-0.9584,380,0,28.2
2026-07-30 12:07:04:890,-0.2349,-0.067,-0.9466,380,0,28.2
2026-07-30 12:07:04:900,-0.231,-0.067,-0.9505,388,0,28.2
2026-07-30 12:07:04:910,-0.2194,-0.0632,-0.9624,388,0,28.2
2026-07-30 12:07:04:920,-0.2349,-0.0708,-0.9663,388,0,28.2
2026-07-30 12:07:04:930,-0.2271,-0.067,-0.9505,384,0,28.2
2026-07-30 12:07:04:940,-0.231,-0.0556,-0.9545,384,0,28.2
2026-07-30 12:07:04:950,-0.231,-0.067,-0.9466,384,0,28.2
2026-07-30 12:07:04:960,-0.2271,-0.0785,-0.9782,376,0,28.2
2026-07-30 12:07:04:970,-0.2194,-0.067,-0.9663,376,0,28.2
2026-07-30 12:07:04:980,-0.231,-0.0708,-0.9624,372,0,28.2
2026-07-30 12:07:04:990,-0.2232,-0.0556,-0.9663,372,0,28.2
2026-07-30 12:07:05:000,-0.2232,-0.0632,-0.9782,372,0,28.2
2026-07-30 12:07:05:010,-0.2116,-0.0747,-0.9663,376,0,28.2
2026-07-30 12:07:05:020,-0.2194,-0.0708,-0.9624,376,0,28.2
2026-07-30 12:07:05:030,-0.2232,-0.0708,-0.9505,376,0,28.2
2026-07-30 12:07:05:040,-0.2387,-0.0708,-0.9663,380,0,28.2
2026-07-30 12:07:05:050,-0.2349,-0.0747,-0.9821,380,0,28.2
2026-07-30 12:07:05:060,-0.231,-0.0479,-0.9703,384,0,28.2
2026-07-30 12:07:05:070,-0.2271,-0.0594,-0.9584,384,0,28.2
2026-07-30 12:07:05:080,-0.2271,-0.0517,-0.9703,384,0,28.2
2026-07-30 12:07:05:090,-0.2232,-0.0556,-0.9545,384,0,28.2
2026-07-30 12:07:05:100,-0.2155,-0.0517,-0.9584,384,0,28.2
2026-07-30 12:07:05:110,-0.2194,-0.0479,-0.9703,384,0,28.2
2026-07-30 12:07:05:120,-0.2155,-0.0594,-0.9505,376,0,28.2
2026-07-30 12:07:05:130,-0.2194,-0.0441,-0.9703,376,0,28.2
2026-07-30 12:07:05:140,-0.2271,-0.0708,-0.9466,372,0,28.2
2026-07-30 12:07:05:150,-0.2194,-0.0632,-0.9624,372,0,28.2
2026-07-30 12:07:05:160,-0.231,-0.0594,-0.9584,372,0,28.2
2026-07-30 12:07:05:170,-0.2232,-0.0594,-0.9545,376,0,28.2
2026-07-30 12:07:05:180,-0.2349,-0.0632,-0.9466,376,0,28.2
2026-07-30 12:07:05:190,-0.2387,-0.0403,-0.9466,384,0,28.2
2026-07-30 12:07:05:200,-0.2271,-0.0785,-0.9742,384,0,28.2
2026-07-30 12:07:05:210,-0.231,-0.0594,-0.9703,384,0,28.2
2026-07-30 12:07:05:220,-0.2271,-0.067,-0.9624,384,0,28.2
2026-07-30 12:07:05:230,-0.2387,-0.067,-0.9703,384,0,28.2
2026-07-30 12:07:05:240,-0.231,-0.0632,-0.9505,384,0,28.2
2026-07-30 12:07:05:250,-0.231,-0.0594,-0.9466,380,0,28.2
2026-07-30 12:07:05:260,-0.2349,-0.0479,-0.9624,380,0,28.2
2026-07-30 12:07:05:270,-0.2504,-0.0594,-0.9663,376,0,28.2
2026-07-30 12:07:05:280,-0.2426,-0.0594,-0.9545,376,0,28.2
2026-07-30 12:07:05:290,-0.2387,-0.067,-0.9624,376,0,28.2
2026-07-30 12:07:05:300,-0.2271,-0.0556,-0.9782,372,0,28.2
2026-07-30 12:07:05:310,-0.231,-0.0517,-0.9505,372,0,28.2
2026-07-30 12:07:05:320,-0.2194,-0.0785,-0.9742,372,0,28.2
2026-07-30 12:07:05:330,-0.231,-0.0594,-0.9505,376,0,28.2
2026-07-30 12:07:05:340,-0.2194,-0.067,-0.9663,376,0,28.2
2026-07-30 12:07:05:350,-0.2116,-0.0594,-0.9624,384,0,28.2
2026-07-30 12:07:05:360,-0.2271,-0.0365,-0.9466,384,0,28.2
2026-07-30 12:07:05:370,-0.2349,-0.0479,-0.9703,384,0,28.2
2026-07-30 12:07:05:380,-0.2504,-0.0594,-0.9624,384,0,28.2
2026-07-30 12:07:05:390,-0.2271,-0.0517,-0.9742,384,0,28.2
2026-07-30 12:07:05:400,-0.231,-0.0556,-0.9663,384,0,28.2
2026-07-30 12:07:05:410,-0.2465,-0.0479,-0.9663,380,0,28.2
2026-07-30 12:07:05:420,-0.2426,-0.0479,-0.9466,380,0,28.2
2026-07-30 12:07:05:430,-0.2426,-0.0632,-0.9545,372,0,28.2
2026-07-30 12:07:05:440,-0.2542,-0.0517,-0.9663,372,0,28.2
2026-07-30 12:07:05:450,-0.231,-0.0632,-0.9545,372,0,28.2
2026-07-30 12:07:05:460,-0.2349,-0.0365,-0.9584,372,0,28.2
2026-07-30 12:07:05:470,-0.2426,-0.0441,-0.9703,372,0,28.2
2026-07-30 12:07:05:480,-0.2155,-0.067,-0.9545,372,0,28.2
2026-07-30 12:07:05:490,-0.2349,-0.0632,-0.9545,376,0,28.2
2026-07-30 12:07:05:500,-0.2426,-0.0594,-0.9584,376,0,28.2
2026-07-30 12:07:05:510,-0.2271,-0.0517,-0.9545,384,0,28.2
2026-07-30 12:07:05:520,-0.2387,-0.0556,-0.9387,384,0,28.2
2026-07-30 12:07:05:530,-0.231,-0.0594,-0.9387,384,0,28.2
2026-07-30 12:07:05:540,-0.2387,-0.0556,-0.9584,384,0,28.2
2026-07-30 12:07:05:550,-0.2465,-0.0365,-0.9466,384,0,28.2
2026-07-30 12:07:05:560,-0.2387,-0.0556,-0.9624,384,0,28.2
2026-07-30 12:07:05:570,-0.231,-0.0594,-0.9742,380,0,28.2
2026-07-30 12:07:05:580,-0.231,-0.0556,-0.9624,380,0,28.2
2026-07-30 12:07:05:590,-0.2426,-0.0479,-0.9466,372,0,28.2
2026-07-30 12:07:05:600,-0.2387,-0.0632,-0.9703,372,0,28.2
2026-07-30 12:07:05:610,-0.2271,-0.0594,-0.9624,372,0,28.2
2026-07-30 12:07:05:620,-0.2426,-0.0747,-0.9861,372,0,28.2
2026-07-30 12:07:05:630,-0.2271,-0.0441,-0.9505,372,0,28.2
2026-07-30 12:07:05:640,-0.231,-0.0632,-0.9545,372,0,28.2
2026-07-30 12:07:05:650,-0.2426,-0.0708,-0.9505,376,0,28.2
2026-07-30 12:07:05:660,-0.2426,-0.0747,-0.9624,376,0,28.2
2026-07-30 12:07:05:670,-0.2504,-0.067,-0.9703,384,0,28.2
2026-07-30 12:07:05:680,-0.2387,-0.067,-0.9505,384,0,28.2
2026-07-30 12:07:05:690,-0.2426,-0.0747,-0.9545,384,0,28.2
2026-07-30 12:07:05:700,-0.2504,-0.0594,-0.9742,384,0,28.2
2026-07-30 12:07:05:710,-0.231,-0.0594,-0.9584,384,0,28.2
2026-07-30 12:07:05:720,-0.2426,-0.0632,-0.9782,380,0,28.2
2026-07-30 12:07:05:730,-0.2465,-0.0479,-0.9545,380,0,28.2
2026-07-30 12:07:05:740,-0.2387,-0.0594,-0.9663,380,0,28.2
2026-07-30 12:07:05:750,-0.2426,-0.067,-0.9584,372,0,28.2
2026-07-30 12:07:05:760,-0.231,-0.0594,-0.9584,372,0,28.2
2026-07-30 12:07:05:770,-0.2232,-0.0556,-0.9505,372,0,28.2
2026-07-30 12:07:05:780,-0.2387,-0.0594,-0.9703,372,0,28.2
2026-07-30 12:07:05:790,-0.2426,-0.0747,-0.9703,372,0,28.2
2026-07-30 12:07:05:800,-0.231,-0.0594,-0.9584,380,0,28.2
2026-07-30 12:07:05:810,-0.2349,-0.0632,-0.9545,380,0,28.2
2026-07-30 12:07:05:820,-0.2232,-0.0594,-0.9584,380,0,28.2
2026-07-30 12:07:05:830,-0.2271,-0.0632,-0.9505,384,0,28.2
2026-07-30 12:07:05:840,-0.2387,-0.0594,-0.9584,384,0,28.2
2026-07-30 12:07:05:850,-0.2426,-0.0403,-0.9584,384,0,28.2
2026-07-30 12:07:05:860,-0.2465,-0.0594,-0.9584,384,0,28.2
2026-07-30 12:07:05:870,-0.2542,-0.0517,-0.9703,384,0,28.2
2026-07-30 12:07:05:880,-0.2387,-0.0517,-0.9703,376,0,28.2
2026-07-30 12:07:05:890,-0.2465,-0.0479,-0.9426,376,0,28.2
2026-07-30 12:07:05:900,-0.2349,-0.0441,-0.9545,376,0,28.2
2026-07-30 12:07:05:910,-0.2465,-0.0594,-0.9545,372,0,28.2
2026-07-30 12:07:05:920,-0.2387,-0.0632,-0.9426,372,0,28.2
2026-07-30 12:07:05:930,-0.231,-0.0403,-0.9624,372,0,28.2
2026-07-30 12:07:05:940,-0.231,-0.0441,-0.9426,372,0,28.2
2026-07-30 12:07:05:950,-0.2387,-0.0517,-0.9703,372,0,28.2
2026-07-30 12:07:05:960,-0.2271,-0.0556,-0.9466,380,0,28.2
2026-07-30 12:07:05:970,-0.2387,-0.0708,-0.9624,380,0,28.2
2026-07-30 12:07:05:980,-0.2504,-0.0403,-0.9466,380,0,28.2
2026-07-30 12:07:05:990,-0.2504,-0.0517,-0.9584,384,0,28.2
2026-07-30 12:07:06:000,-0.2387,-0.067,-0.9466,384,0,28.2
2026-07-30 12:07:06:010,-0.2504,-0.0632,-0.9624,380,0,28.2
2026-07-30 12:07:06:020,-0.2465,-0.0479,-0.9584,380,0,28.2
2026-07-30 12:07:06:030,-0.2349,-0.0556,-0.9545,380,0,28.2
2026-07-30 12:07:06:040,-0.2426,-0.0441,-0.9624,376,0,28.2
2026-07-30 12:07:06:050,-0.2504,-0.0517,-0.9624,376,0,28.2
2026-07-30 12:07:06:060,-0.2387,-0.0479,-0.9624,372,0,28.2
2026-07-30 12:07:06:070,-0.2542,-0.0594,-0.9624,372,0,28.2
2026-07-30 12:07:06:080,-0.2426,-0.0632,-0.9584,372,0,28.2
2026-07-30 12:07:06:090,-0.2465,-0.0403,-0.9545,372,0,28.2
2026-07-30 12:07:06:100,-0.2504,-0.0441,-0.9505,372,0,28.2
2026-07-30 12:07:06:110,-0.2387,-0.0632,-0.9584,372,0,28.2
2026-07-30 12:07:06:120,-0.2271,-0.0441,-0.9742,380,0,28.2
2026-07-30 12:07:06:130,-0.2271,-0.0479,-0.9545,380,0,28.2
2026-07-30 12:07:06:140,-0.2349,-0.0517,-0.9584,384,0,28.2
2026-07-30 12:07:06:150,-0.2349,-0.0517,-0.9466,384,0,28.2
2026-07-30 12:07:06:160,-0.2387,-0.0517,-0.9466,384,0,28.2
2026-07-30 12:07:06:170,-0.2581,-0.0594,-0.9545,380,0,28.2
2026-07-30 12:07:06:180,-0.2232,-0.0594,-0.9742,380,0,28.2
2026-07-30 12:07:06:190,-0.2387,-0.067,-0.9624,372,0,28.2
2026-07-30 12:07:06:200,-0.2504,-0.0479,-0.9505,372,0,28.2
2026-07-30 12:07:06:210,-0.2349,-0.0403,-0.9466,372,0,28.2
2026-07-30 12:07:06:220,-0.231,-0.0556,-0.9624,368,0,28.2
2026-07-30 12:07:06:230,-0.231,-0.0594,-0.9584,368,0,28.2
2026-07-30 12:07:06:240,-0.231,-0.0632,-0.9663,368,0,28.2
2026-07-30 12:07:06:250,-0.2504,-0.0556,-0.9742,372,0,28.2
2026-07-30 12:07:06:260,-0.231,-0.0441,-0.9584,372,0,28.2
2026-07-30 12:07:06:270,-0.2426,-0.0517,-0.9663,380,0,28.2
2026-07-30 12:07:06:280,-0.2387,-0.0556,-0.9584,380,0,28.2
2026-07-30 12:07:06:290,-0.2465,-0.0517,-0.9663,380,0,28.2
2026-07-30 12:07:06:300,-0.2387,-0.0556,-0.9703,380,0,28.2
2026-07-30 12:07:06:310,-0.2504,-0.0594,-0.9545,380,0,28.2
2026-07-30 12:07:06:320,-0.2465,-0.0517,-0.9663,380,0,28.2
2026-07-30 12:07:06:330,-0.2426,-0.0632,-0.9624,376,0,28.2
2026-07-30 12:07:06:340,-0.2349,-0.067,-0.9663,376,0,28.2
2026-07-30 12:07:06:350,-0.2426,-0.0441,-0.9545,372,0,28.2
2026-07-30 12:07:06:360,-0.2232,-0.0517,-0.9466,372,0,28.2
2026-07-30 12:07:06:370,-0.231,-0.0594,-0.9545,372,0,28.2
2026-07-30 12:07:06:380,-0.2387,-0.0288,-0.9703,368,0,28.2
2026-07-30 12:07:06:390,-0.2387,-0.0594,-0.9663,368,0,28.2
2026-07-30 12:07:06:400,-0.2271,-0.0594,-0.9426,368,0,28.2
2026-07-30 12:07:06:410,-0.262,-0.0517,-0.9703,372,0,28.2
2026-07-30 12:07:06:420,-0.2504,-0.0479,-0.9505,372,0,28.2
2026-07-30 12:07:06:430,-0.2426,-0.0479,-0.9387,380,0,28.2
2026-07-30 12:07:06:440,-0.2387,-0.0556,-0.9584,380,0,28.2
2026-07-30 12:07:06:450,-0.2465,-0.0441,-0.9624,380,0,28.2
2026-07-30 12:07:06:460,-0.231,-0.0556,-0.9466,380,0,28.2
2026-07-30 12:07:06:470,-0.2349,-0.0708,-0.9545,380,0,28.2
2026-07-30 12:07:06:480,-0.2349,-0.0785,-0.99,380,0,28.2
2026-07-30 12:07:06:490,-0.2232,-0.0632,-0.9466,376,0,28.2
2026-07-30 12:07:06:500,-0.2426,-0.0594,-0.9663,376,0,28.2
2026-07-30 12:07:06:510,-0.231,-0.0517,-0.9624,368,0,28.2
2026-07-30 12:07:06:520,-0.2426,-0.0594,-0.9742,368,0,28.2
2026-07-30 12:07:06:530,-0.2504,-0.0632,-0.9624,368,0,28.2
2026-07-30 12:07:06:540,-0.2387,-0.0479,-0.9624,368,0,28.2
2026-07-30 12:07:06:550,-0.2349,-0.0556,-0.9505,368,0,28.2
2026-07-30 12:07:06:560,-0.231,-0.0441,-0.9703,368,0,28.2
2026-07-30 12:07:06:570,-0.2542,-0.0517,-0.9584,372,0,28.2
2026-07-30 12:07:06:580,-0.2387,-0.0594,-0.9624,372,0,28.2
2026-07-30 12:07:06:590,-0.231,-0.0479,-0.9505,380,0,28.2
2026-07-30 12:07:06:600,-0.2465,-0.0556,-0.9663,380,0,28.2
2026-07-30 12:07:06:610,-0.2504,-0.067,-0.9782,380,0,28.2
2026-07-30 12:07:06:620,-0.2542,-0.0594,-0.9624,380,0,28.2
2026-07-30 12:07:06:630,-0.231,-0.0365,-0.9426,380,0,28.2
2026-07-30 12:07:06:640,-0.2465,-0.0479,-0.9505,380,0,28.2
2026-07-30 12:07:06:650,-0.2426,-0.0556,-0.9584,372,0,28.2
2026-07-30 12:07:06:660,-0.2426,-0.0479,-0.9505,372,0,28.2
2026-07-30 12:07:06:670,-0.2387,-0.0594,-0.9663,368,0,28.2
2026-07-30 12:07:06:680,-0.231,-0.0632,-0.9545,368,0,28.2
2026-07-30 12:07:06:690,-0.2542,-0.0556,-0.9466,368,0,28.2
2026-07-30 12:07:06:700,-0.2387,-0.0556,-0.9584,368,0,28.2
2026-07-30 12:07:06:710,-0.231,-0.0517,-0.9624,368,0,28.2
2026-07-30 12:07:06:720,-0.2349,-0.0517,-0.9584,372,0,28.2
2026-07-30 12:07:06:730,-0.2426,-0.0785,-0.9742,372,0,28.2
2026-07-30 12:07:06:740,-0.231,-0.0556,-0.9584,372,0,28.2
2026-07-30 12:07:06:750,-0.2387,-0.0594,-0.9584,380,0,28.2
2026-07-30 12:07:06:760,-0.2271,-0.0594,-0.9624,380,0,28.2
2026-07-30 12:07:06:770,-0.2426,-0.0556,-0.9505,380,0,28.2
2026-07-30 12:07:06:780,-0.2426,-0.0479,-0.9545,380,0,28.2
2026-07-30 12:07:06:790,-0.2426,-0.067,-0.9703,380,0,28.2
2026-07-30 12:07:06:800,-0.2387,-0.0594,-0.9505,372,0,28.2
2026-07-30 12:07:06:810,-0.2387,-0.0594,-0.9545,372,0,28.2
2026-07-30 12:07:06:820,-0.2349,-0.0708,-0.9624,372,0,28.2
2026-07-30 12:07:06:830,-0.231,-0.0517,-0.9545,368,0,28.2
2026-07-30 12:07:06:840,-0.231,-0.0594,-0.9584,368,0,28.2
2026-07-30 12:07:06:850,-0.2426,-0.0556,-0.9505,368,0,28.2
2026-07-30 12:07:06:860,-0.2387,-0.0517,-0.9545,368,0,28.2
2026-07-30 12:07:06:870,-0.2387,-0.067,-0.9505,368,0,28.2
2026-07-30 12:07:06:880,-0.2426,-0.0594,-0.9663,376,0,28.2
2026-07-30 12:07:06:890,-0.2387,-0.0517,-0.9466,376,0,28.2
2026-07-30 12:07:06:900,-0.231,-0.0517,-0.9742,376,0,28.2
2026-07-30 12:07:06:910,-0.2387,-0.0479,-0.9387,380,0,28.2
2026-07-30 12:07:06:920,-0.231,-0.0556,-0.9663,380,0,28.2
2026-07-30 12:07:06:930,-0.231,-0.0594,-0.9703,380,0,28.2
2026-07-30 12:07:06:940,-0.2271,-0.0556,-0.9624,376,0,28.2
2026-07-30 12:07:06:950,-0.2349,-0.0594,-0.9624,376,0,28.2
2026-07-30 12:07:06:960,-0.2387,-0.0632,-0.9505,372,0,28.2
2026-07-30 12:07:06:970,-0.2271,-0.0594,-0.9545,372,0,28.2
2026-07-30 12:07:06:980,-0.2426,-0.0479,-0.9466,372,0,28.2
2026-07-30 12:07:06:990,-0.2465,-0.067,-0.9584,364,0,28.2
2026-07-30 12:07:07:000,-0.2426,-0.0708,-0.9624,364,0,28.2
2026-07-30 12:07:07:010,-0.2465,-0.0479,-0.9584,364,0,28.2
2026-07-30 12:07:07:020,-0.231,-0.0747,-0.9466,368,0,28.2
2026-07-30 12:07:07:030,-0.2349,-0.0556,-0.9545,368,0,28.2
2026-07-30 12:07:07:040,-0.2504,-0.067,-0.9782,376,0,28.2
2026-07-30 12:07:07:050,-0.2426,-0.0517,-0.9584,376,0,28.2
2026-07-30 12:07:07:060,-0.2542,-0.0517,-0.9703,376,0,28.2
2026-07-30 12:07:07:070,-0.2465,-0.0556,-0.9505,380,0,28.2
2026-07-30 12:07:07:080,-0.2271,-0.0479,-0.9545,380,0,28.2
2026-07-30 12:07:07:090,-0.231,-0.067,-0.9624,380,0,28.2
2026-07-30 12:07:07:100,-0.2271,-0.0594,-0.9466,376,0,28.2
2026-07-30 12:07:07:110,-0.2349,-0.0517,-0.9624,376,0,28.2
2026-07-30 12:07:07:120,-0.2271,-0.0556,-0.9466,368,0,28.2
2026-07-30 12:07:07:130,-0.2349,-0.0594,-0.9545,368,0,28.2
2026-07-30 12:07:07:140,-0.2271,-0.0517,-0.9584,368,0,28.2
2026-07-30 12:07:07:150,-0.2349,-0.0479,-0.9466,364,0,28.2
2026-07-30 12:07:07:160,-0.2426,-0.0479,-0.9703,364,0,28.2
2026-07-30 12:07:07:170,-0.2349,-0.067,-0.9387,368,0,28.2
2026-07-30 12:07:07:180,-0.2426,-0.067,-0.9624,368,0,28.2
2026-07-30 12:07:07:190,-0.2465,-0.0556,-0.9624,368,0,28.2
2026-07-30 12:07:07:200,-0.231,-0.067,-0.9624,376,0,28.2
2026-07-30 12:07:07:210,-0.2426,-0.0632,-0.9584,376,0,28.2
2026-07-30 12:07:07:220,-0.231,-0.0594,-0.9624,376,0,28.2
2026-07-30 12:07:07:230,-0.231,-0.0517,-0.9505,376,0,28.2
2026-07-30 12:07:07:240,-0.231,-0.0594,-0.9545,376,0,28.2
2026-07-30 12:07:07:250,-0.231,-0.0594,-0.9624,372,0,28.2
2026-07-30 12:07:07:260,-0.2387,-0.0441,-0.9584,372,0,28.2
2026-07-30 12:07:07:270,-0.2426,-0.0479,-0.9624,372,0,28.2
2026-07-30 12:07:07:280,-0.2465,-0.0632,-0.9584,368,0,28.2
2026-07-30 12:07:07:290,-0.2465,-0.0403,-0.9624,368,0,28.2
2026-07-30 12:07:07:300,-0.2504,-0.0517,-0.9466,368,0,28.2
2026-07-30 12:07:07:310,-0.231,-0.0594,-0.9545,364,0,28.2
2026-07-30 12:07:07:320,-0.2271,-0.0517,-0.9663,364,0,28.2
2026-07-30 12:07:07:330,-0.2271,-0.0441,-0.9703,368,0,28.2
2026-07-30 12:07:07:340,-0.2349,-0.0403,-0.9703,368,0,28.2
2026-07-30 12:07:07:350,-0.2387,-0.0517,-0.9584,368,0,28.2
2026-07-30 12:07:07:360,-0.2426,-0.0441,-0.9584,376,0,28.2
2026-07-30 12:07:07:370,-0.2349,-0.0594,-0.9584,376,0,28.2
2026-07-30 12:07:07:380,-0.2426,-0.0517,-0.9545,376,0,28.2
2026-07-30 12:07:07:390,-0.2387,-0.0517,-0.9703,376,0,28.2
2026-07-30 12:07:07:400,-0.2465,-0.0594,-0.9545,376,0,28.2
2026-07-30 12:07:07:410,-0.2387,-0.0594,-0.9466,372,0,28.2
2026-07-30 12:07:07:420,-0.2465,-0.0594,-0.9663,372,0,28.2
2026-07-30 12:07:07:430,-0.2426,-0.0365,-0.9584,372,0,28.2
2026-07-30 12:07:07:440,-0.231,-0.0479,-0.9426,364,0,28.2
2026-07-30 12:07:07:450,-0.2465,-0.0708,-0.9624,364,0,28.2
2026-07-30 12:07:07:460,-0.2349,-0.0556,-0.9545,364,0,28.2
2026-07-30 12:07:07:470,-0.2387,-0.0594,-0.9703,364,0,28.2
2026-07-30 12:07:07:480,-0.2387,-0.0556,-0.9466,364,0,28.2
2026-07-30 12:07:07:490,-0.2271,-0.0517,-0.9742,372,0,28.2
2026-07-30 12:07:07:500,-0.231,-0.0556,-0.9545,372,0,28.2
2026-07-30 12:07:07:510,-0.2542,-0.0517,-0.9624,372,0,28.2
2026-07-30 12:07:07:520,-0.2581,-0.0403,-0.9584,376,0,28.2
2026-07-30 12:07:07:530,-0.2465,-0.0632,-0.9703,376,0,28.2
2026-07-30 12:07:07:540,-0.2387,-0.0594,-0.9584,376,0,28.2
2026-07-30 12:07:07:550,-0.2349,-0.0517,-0.9505,376,0,28.2
2026-07-30 12:07:07:560,-0.2426,-0.0479,-0.9703,376,0,28.2
2026-07-30 12:07:07:570,-0.2349,-0.0556,-0.9584,372,0,28.2
2026-07-30 12:07:07:580,-0.2426,-0.0517,-0.9624,372,0,28.2
2026-07-30 12:07:07:590,-0.2387,-0.0479,-0.9624,372,0,28.2
2026-07-30 12:07:07:600,-0.2387,-0.0517,-0.9584,364,0,28.2
2026-07-30 12:07:07:610,-0.2271,-0.067,-0.9663,364,0,28.2
2026-07-30 12:07:07:620,-0.2465,-0.0403,-0.9545,364,0,28.2
2026-07-30 12:07:07:630,-0.2504,-0.0517,-0.9703,364,0,28.2
2026-07-30 12:07:07:640,-0.2387,-0.0441,-0.9703,364,0,28.2
2026-07-30 12:07:07:650,-0.2349,-0.0594,-0.9624,372,0,28.2
2026-07-30 12:07:07:660,-0.2387,-0.0556,-0.9742,372,0,28.2
2026-07-30 12:07:07:670,-0.2426,-0.0594,-0.9505,372,0,28.2
2026-07-30 12:07:07:680,-0.2349,-0.0556,-0.9624,376,0,28.2
2026-07-30 12:07:07:690,-0.2271,-0.0517,-0.9782,376,0,28.2
2026-07-30 12:07:07:700,-0.2426,-0.0708,-0.9584,376,0,28.2
2026-07-30 12:07:07:710,-0.2194,-0.0517,-0.9663,376,0,28.2
2026-07-30 12:07:07:720,-0.2349,-0.0479,-0.9624,376,0,28.2
2026-07-30 12:07:07:730,-0.231,-0.0517,-0.9466,368,0,28.2
2026-07-30 12:07:07:740,-0.2542,-0.0594,-0.9584,368,0,28.2
2026-07-30 12:07:07:750,-0.231,-0.0556,-0.9505,368,0,28.2
2026-07-30 12:07:07:760,-0.2465,-0.0556,-0.9387,364,0,28.2
2026-07-30 12:07:07:770,-0.2581,-0.0517,-0.9545,364,0,28.2
2026-07-30 12:07:07:780,-0.2465,-0.0594,-0.9742,364,0,28.2
2026-07-30 12:07:07:790,-0.2387,-0.0479,-0.9703,364,0,28.2
2026-07-30 12:07:07:800,-0.2504,-0.0594,-0.9703,364,0,28.2
2026-07-30 12:07:07:810,-0.2349,-0.0441,-0.9584,372,0,28.2
2026-07-30 12:07:07:820,-0.2465,-0.0594,-0.9545,372,0,28.2
2026-07-30 12:07:07:830,-0.2465,-0.0632,-0.9584,372,0,28.2
2026-07-30 12:07:07:840,-0.231,-0.0594,-0.9742,376,0,28.2
2026-07-30 12:07:07:850,-0.2271,-0.0441,-0.9624,376,0,28.2
2026-07-30 12:07:07:860,-0.2426,-0.0517,-0.9821,376,0,28.2
2026-07-30 12:07:07:870,-0.2232,-0.0479,-0.9703,376,0,28.2
2026-07-30 12:07:07:880,-0.2349,-0.0441,-0.9426,376,0,28.2
2026-07-30 12:07:07:890,-0.2387,-0.0517,-0.9663,368,0,28.2
2026-07-30 12:07:07:900,-0.2349,-0.0479,-0.9663,368,0,28.2
2026-07-30 12:07:07:910,-0.2387,-0.0556,-0.9584,368,0,28.2
2026-07-30 12:07:07:920,-0.2465,-0.0632,-0.9624,364,0,28.2
2026-07-30 12:07:07:930,-0.2426,-0.0517,-0.9703,364,0,28.2
2026-07-30 12:07:07:940,-0.231,-0.0365,-0.9584,368,0,28.2
2026-07-30 12:07:07:950,-0.2349,-0.0556,-0.9505,368,0,28.2
2026-07-30 12:07:07:960,-0.231,-0.0517,-0.9545,368,0,28.2
2026-07-30 12:07:07:970,-0.2387,-0.0479,-0.9584,372,0,28.2
2026-07-30 12:07:07:980,-0.2426,-0.0403,-0.9624,372,0,28.2
2026-07-30 12:07:07:990,-0.2349,-0.0632,-0.9821,372,0,28.2
2026-07-30 12:07:08:000,-0.2349,-0.0594,-0.9624,376,0,28.2
2026-07-30 12:07:08:010,-0.2426,-0.0594,-0.9545,376,0,28.2
2026-07-30 12:07:08:020,-0.231,-0.0517,-0.9624,376,0,28.2
2026-07-30 12:07:08:030,-0.2349,-0.0517,-0.9545,376,0,28.2
2026-07-30 12:07:08:040,-0.2194,-0.0517,-0.9584,376,0,28.2
2026-07-30 12:07:08:050,-0.2465,-0.0556,-0.9624,368,0,28.2
2026-07-30 12:07:08:060,-0.2465,-0.0556,-0.9703,368,0,28.2
2026-07-30 12:07:08:070,-0.2271,-0.0403,-0.9584,368,0,28.2
2026-07-30 12:07:08:080,-0.2387,-0.0479,-0.9545,364,0,28.2
2026-07-30 12:07:08:090,-0.2504,-0.0556,-0.9663,364,0,28.2
2026-07-30 12:07:08:100,-0.2465,-0.0747,-0.9624,368,0,28.2
2026-07-30 12:07:08:110,-0.2465,-0.0747,-0.9663,368,0,28.2
2026-07-30 12:07:08:120,-0.2349,-0.0594,-0.9545,368,0,28.2
2026-07-30 12:07:08:130,-0.2504,-0.0556,-0.9545,376,0,28.2
2026-07-30 12:07:08:140,-0.2426,-0.0517,-0.9624,376,0,28.2
2026-07-30 12:07:08:150,-0.2387,-0.067,-0.9663,380,0,28.2
2026-07-30 12:07:08:160,-0.231,-0.0594,-0.9624,380,0,28.2
2026-07-30 12:07:08:170,-0.231,-0.0632,-0.9624,380,0,28.2
2026-07-30 12:07:08:180,-0.2349,-0.0441,-0.9545,372,0,28.2
2026-07-30 12:07:08:190,-0.2581,-0.0479,-0.9505,372,0,28.2
2026-07-30 12:07:08:200,-0.2465,-0.0403,-0.9505,372,0,28.2
2026-07-30 12:07:08:210,-0.2387,-0.0594,-0.9584,368,0,28.2
2026-07-30 12:07:08:220,-0.2465,-0.0403,-0.9584,368,0,28.2
2026-07-30 12:07:08:230,-0.2542,-0.0517,-0.9703,364,0,28.2
2026-07-30 12:07:08:240,-0.2349,-0.0479,-0.9584,364,0,28.2
2026-07-30 12:07:08:250,-0.231,-0.0441,-0.9426,364,0,28.2
2026-07-30 12:07:08:260,-0.2271,-0.0594,-0.9584,368,0,28.2
2026-07-30 12:07:08:270,-0.2465,-0.0632,-0.9545,368,0,28.2
2026-07-30 12:07:08:280,-0.2542,-0.0632,-0.9584,368,0,28.2
2026-07-30 12:07:08:290,-0.2465,-0.0556,-0.9624,376,0,28.2
2026-07-30 12:07:08:300,-0.2271,-0.0517,-0.9505,376,0,28.2
2026-07-30 12:07:08:310,-0.2465,-0.0479,-0.9663,376,0,28.2
2026-07-30 12:07:08:320,-0.2426,-0.0556,-0.9624,376,0,28.2
2026-07-30 12:07:08:330,-0.2465,-0.0441,-0.9663,376,0,28.2
2026-07-30 12:07:08:340,-0.2349,-0.0632,-0.9505,372,0,28.2
2026-07-30 12:07:08:350,-0.2426,-0.0632,-0.9624,372,0,28.2
2026-07-30 12:07:08:360,-0.2349,-0.0632,-0.9466,372,0,28.2
2026-07-30 12:07:08:370,-0.2349,-0.0594,-0.9466,364,0,28.2
2026-07-30 12:07:08:380,-0.2349,-0.067,-0.9742,364,0,28.2
2026-07-30 12:07:08:390,-0.2387,-0.0479,-0.9545,364,0,28.2
2026-07-30 12:07:08:400,-0.2349,-0.0479,-0.9663,364,0,28.2
2026-07-30 12:07:08:410,-0.2349,-0.0556,-0.9584,364,0,28.2
2026-07-30 12:07:08:420,-0.2465,-0.0632,-0.9742,368,0,28.2
2026-07-30 12:07:08:430,-0.2349,-0.0594,-0.9545,368,0,28.2
2026-07-30 12:07:08:440,-0.2349,-0.0479,-0.9545,368,0,28.2
2026-07-30 12:07:08:450,-0.2271,-0.0632,-0.9387,376,0,28.2
2026-07-30 12:07:08:460,-0.2349,-0.0441,-0.9545,376,0,28.2
2026-07-30 12:07:08:470,-0.2426,-0.0594,-0.9703,376,0,28.2
2026-07-30 12:07:08:480,-0.2387,-0.0594,-0.9545,376,0,28.2
2026-07-30 12:07:08:490,-0.2387,-0.0556,-0.9584,376,0,28.2
2026-07-30 12:07:08:500,-0.2349,-0.0517,-0.9505,372,0,28.2
2026-07-30 12:07:08:510,-0.2387,-0.0594,-0.9742,372,0,28.2
2026-07-30 12:07:08:520,-0.2504,-0.067,-0.9703,372,0,28.2
2026-07-30 12:07:08:530,-0.2387,-0.0632,-0.9703,364,0,28.2
2026-07-30 12:07:08:540,-0.2349,-0.0556,-0.9703,364,0,28.2
2026-07-30 12:07:08:550,-0.2232,-0.0632,-0.9545,364,0,28.2
2026-07-30 12:07:08:560,-0.2426,-0.0556,-0.9663,364,0,28.2
2026-07-30 12:07:08:570,-0.2387,-0.0594,-0.9466,364,0,28.2
2026-07-30 12:07:08:580,-0.2387,-0.0326,-0.9703,372,0,28.2
2026-07-30 12:07:08:590,-0.2504,-0.0479,-0.9663,372,0,28.2
2026-07-30 12:07:08:600,-0.2349,-0.0594,-0.9663,372,0,28.2
2026-07-30 12:07:08:610,-0.2465,-0.0632,-0.9584,376,0,28.2
2026-07-30 12:07:08:620,-0.2232,-0.0441,-0.9584,376,0,28.2
2026-07-30 12:07:08:630,-0.2387,-0.067,-0.9545,376,0,28.2
2026-07-30 12:07:08:640,-0.2465,-0.067,-0.9584,376,0,28.2
2026-07-30 12:07:08:650,-0.2387,-0.0632,-0.9624,376,0,28.2
2026-07-30 12:07:08:660,-0.2387,-0.067,-0.9545,372,0,28.2
2026-07-30 12:07:08:670,-0.231,-0.0479,-0.9466,372,0,28.2
2026-07-30 12:07:08:680,-0.2387,-0.0479,-0.9505,364,0,28.2
2026-07-30 12:07:08:690,-0.2271,-0.0632,-0.9466,364,0,28.2
2026-07-30 12:07:08:700,-0.231,-0.0556,-0.9545,364,0,28.2
2026-07-30 12:07:08:710,-0.2387,-0.0556,-0.9584,368,0,28.2
2026-07-30 12:07:08:720,-0.2232,-0.0517,-0.9426,368,0,28.2
2026-07-30 12:07:08:730,-0.2271,-0.0517,-0.9624,368,0,28.2
2026-07-30 12:07:08:740,-0.2232,-0.0479,-0.9584,372,0,28.2
2026-07-30 12:07:08:750,-0.2387,-0.0632,-0.9624,372,0,28.2
2026-07-30 12:07:08:760,-0.2349,-0.0594,-0.9624,376,0,28.2
2026-07-30 12:07:08:770,-0.231,-0.0517,-0.9505,376,0,28.2
2026-07-30 12:07:08:780,-0.2232,-0.067,-0.9624,376,0,28.2
2026-07-30 12:07:08:790,-0.231,-0.0517,-0.9545,376,0,28.2
2026-07-30 12:07:08:800,-0.231,-0.0594,-0.9545,376,0,28.2
2026-07-30 12:07:08:810,-0.2349,-0.0556,-0.9584,376,0,28.2
2026-07-30 12:07:08:820,-0.2349,-0.0632,-0.9545,368,0,28.2
2026-07-30 12:07:08:830,-0.231,-0.0326,-0.9466,368,0,28.2
2026-07-30 12:07:08:840,-0.2349,-0.0479,-0.9584,364,0,28.2
2026-07-30 12:07:08:850,-0.231,-0.0479,-0.9426,364,0,28.2
2026-07-30 12:07:08:860,-0.2465,-0.0479,-0.9505,364,0,28.2
2026-07-30 12:07:08:870,-0.2542,-0.0403,-0.9505,368,0,28.2
2026-07-30 12:07:08:880,-0.2387,-0.0517,-0.9584,368,0,28.2
2026-07-30 12:07:08:890,-0.2426,-0.0441,-0.9545,368,0,28.2
2026-07-30 12:07:08:900,-0.2349,-0.0632,-0.9663,376,0,28.2
2026-07-30 12:07:08:910,-0.2387,-0.067,-0.9663,376,0,28.2
2026-07-30 12:07:08:920,-0.2387,-0.0632,-0.9545,376,0,28.2
2026-07-30 12:07:08:930,-0.231,-0.0479,-0.9584,376,0,28.2
2026-07-30 12:07:08:940,-0.2426,-0.0441,-0.9584,376,0,28.2
2026-07-30 12:07:08:950,-0.231,-0.0441,-0.9703,372,0,28.2
2026-07-30 12:07:08:960,-0.2194,-0.0632,-0.9663,372,0,28.2
2026-07-30 12:07:08:970,-0.2387,-0.0632,-0.9663,372,0,28.2
2026-07-30 12:07:08:980,-0.2387,-0.0517,-0.9505,368,0,28.2
2026-07-30 12:07:08:990,-0.2387,-0.0594,-0.9624,368,0,28.2
2026-07-30 12:07:09:000,-0.2426,-0.0517,-0.9505,364,0,28.2
2026-07-30 12:07:09:010,-0.2349,-0.067,-0.9782,364,0,28.2
2026-07-30 12:07:09:020,-0.2349,-0.0441,-0.9426,368,0,28.2
2026-07-30 12:07:09:030,-0.2349,-0.0517,-0.9466,368,0,28.2
2026-07-30 12:07:09:040,-0.2271,-0.0708,-0.9782,368,0,28.2
2026-07-30 12:07:09:050,-0.2349,-0.0556,-0.9426,376,0,28.2
2026-07-30 12:07:09:060,-0.2387,-0.0441,-0.9624,376,0,28.2
2026-07-30 12:07:09:070,-0.231,-0.0479,-0.9782,376,0,28.2
2026-07-30 12:07:09:080,-0.2426,-0.0556,-0.9663,380,0,28.2
2026-07-30 12:07:09:090,-0.2271,-0.067,-0.9584,380,0,28.2
2026-07-30 12:07:09:100,-0.231,-0.0556,-0.9624,372,0,28.2
2026-07-30 12:07:09:110,-0.2581,-0.0479,-0.9584,372,0,28.2
2026-07-30 12:07:09:120,-0.2271,-0.0441,-0.9466,372,0,28.2
2026-07-30 12:07:09:130,-0.2426,-0.0556,-0.9584,368,0,28.2
2026-07-30 12:07:09:140,-0.2387,-0.0594,-0.9505,368,0,28.2
2026-07-30 12:07:09:150,-0.2465,-0.0441,-0.9505,364,0,28.2
2026-07-30 12:07:09:160,-0.231,-0.0517,-0.9703,364,0,28.2
2026-07-30 12:07:09:170,-0.2581,-0.0288,-0.9663,364,0,28.2
2026-07-30 12:07:09:180,-0.2504,-0.0517,-0.9663,372,0,28.2
2026-07-30 12:07:09:190,-0.2465,-0.0594,-0.9466,372,0,28.2
2026-07-30 12:07:09:200,-0.2387,-0.0479,-0.9663,372,0,28.2
2026-07-30 12:07:09:210,-0.2387,-0.0517,-0.9545,376,0,28.2
2026-07-30 12:07:09:220,-0.2232,-0.067,-0.9624,376,0,28.2
2026-07-30 12:07:09:230,-0.2387,-0.0747,-0.9545,376,0,28.2
2026-07-30 12:07:09:240,-0.2271,-0.0556,-0.9426,376,0,28.2
2026-07-30 12:07:09:250,-0.2271,-0.0517,-0.9624,376,0,28.2
2026-07-30 12:07:09:260,-0.2349,-0.0517,-0.9505,372,0,28.2
2026-07-30 12:07:09:270,-0.2504,-0.0441,-0.9505,372,0,28.2
2026-07-30 12:07:09:280,-0.2504,-0.0479,-0.9663,372,0,28.2
2026-07-30 12:07:09:290,-0.2426,-0.0517,-0.9466,364,0,28.2
2026-07-30 12:07:09:300,-0.2542,-0.0556,-0.9505,364,0,28.2
2026-07-30 12:07:09:310,-0.2504,-0.0632,-0.9545,364,0,28.2
2026-07-30 12:07:09:320,-0.2426,-0.0594,-0.9624,364,0,28.2
2026-07-30 12:07:09:330,-0.2504,-0.0403,-0.9624,364,0,28.2
2026-07-30 12:07:09:340,-0.2349,-0.0594,-0.9505,372,0,28.2
2026-07-30 12:07:09:350,-0.2232,-0.0517,-0.9584,372,0,28.2
2026-07-30 12:07:09:360,-0.2271,-0.0632,-0.9426,372,0,28.2
2026-07-30 12:07:09:370,-0.2349,-0.0517,-0.9466,376,0,28.2
2026-07-30 12:07:09:380,-0.2349,-0.0632,-0.9663,376,0,28.2
2026-07-30 12:07:09:390,-0.2465,-0.0479,-0.9624,376,0,28.2
2026-07-30 12:07:09:400,-0.2426,-0.0594,-0.9466,376,0,28.2
2026-07-30 12:07:09:410,-0.2736,-0.067,-0.9742,376,0,28.2
2026-07-30 12:07:09:420,-0.2581,-0.0517,-0.9584,368,0,28.2
2026-07-30 12:07:09:430,-0.2542,-0.0517,-0.9545,368,0,28.2
2026-07-30 12:07:09:440,-0.2465,-0.0479,-0.9584,368,0,28.2
2026-07-30 12:07:09:450,-0.2387,-0.0594,-0.9505,364,0,28.2
2026-07-30 12:07:09:460,-0.231,-0.0441,-0.9624,364,0,28.2
2026-07-30 12:07:09:470,-0.2426,-0.0441,-0.9505,368,0,28.2
2026-07-30 12:07:09:480,-0.2465,-0.0556,-0.9505,368,0,28.2
2026-07-30 12:07:09:490,-0.2542,-0.0479,-0.9545,368,0,28.2
2026-07-30 12:07:09:500,-0.2465,-0.0479,-0.9663,372,0,28.2
2026-07-30 12:07:09:510,-0.2465,-0.0479,-0.9663,372,0,28.2
2026-07-30 12:07:09:520,-0.2581,-0.0556,-0.9545,372,0,28.2
2026-07-30 12:07:09:530,-0.2542,-0.067,-0.9742,376,0,28.2
2026-07-30 12:07:09:540,-0.262,-0.0556,-0.9505,376,0,28.2
2026-07-30 12:07:09:550,-0.2542,-0.0594,-0.9584,376,0,28.2
2026-07-30 12:07:09:560,-0.2465,-0.0479,-0.9466,376,0,28.2
2026-07-30 12:07:09:570,-0.2542,-0.0326,-0.9545,376,0,28.2
2026-07-30 12:07:09:580,-0.262,-0.0556,-0.9505,368,0,28.2
2026-07-30 12:07:09:590,-0.2465,-0.0594,-0.9584,368,0,28.2
2026-07-30 12:07:09:600,-0.231,-0.0517,-0.9426,368,0,28.2
2026-07-30 12:07:09:610,-0.2504,-0.0556,-0.9742,364,0,28.2
2026-07-30 12:07:09:620,-0.2426,-0.0479,-0.9466,364,0,28.2
2026-07-30 12:07:09:630,-0.2581,-0.0556,-0.9584,368,0,28.2
2026-07-30 12:07:09:640,-0.2504,-0.0479,-0.9545,368,0,28.2
2026-07-30 12:07:09:650,-0.2504,-0.0517,-0.9505,368,0,28.2
2026-07-30 12:07:09:660,-0.262,-0.0403,-0.9505,376,0,28.2
2026-07-30 12:07:09:670,-0.2697,-0.0479,-0.9742,376,0,28.2
2026-07-30 12:07:09:680,-0.2697,-0.0403,-0.9742,380,0,28.2
2026-07-30 12:07:09:690,-0.2697,-0.0479,-0.9584,380,0,28.2
2026-07-30 12:07:09:700,-0.2659,-0.0441,-0.9426,380,0,28.2
2026-07-30 12:07:09:710,-0.2697,-0.0441,-0.9466,376,0,28.2
2026-07-30 12:07:09:720,-0.2542,-0.067,-0.9663,376,0,28.2
2026-07-30 12:07:09:730,-0.2581,-0.0479,-0.9268,376,0,28.2
2026-07-30 12:07:09:740,-0.2659,-0.067,-0.9545,368,0,28.2
2026-07-30 12:07:09:750,-0.262,-0.0403,-0.9387,368,0,28.2
2026-07-30 12:07:09:760,-0.2504,-0.0441,-0.9308,368,0,28.2
2026-07-30 12:07:09:770,-0.2659,-0.0326,-0.9505,368,0,28.2
2026-07-30 12:07:09:780,-0.2581,-0.0517,-0.9545,368,0,28.2
2026-07-30 12:07:09:790,-0.2542,-0.0517,-0.9703,372,0,28.2
2026-07-30 12:07:09:800,-0.2659,-0.0517,-0.9545,372,0,28.2
2026-07-30 12:07:09:810,-0.262,-0.0556,-0.9663,372,0,28.2
2026-07-30 12:07:09:820,-0.2542,-0.0517,-0.9466,376,0,28.2
2026-07-30 12:07:09:830,-0.2581,-0.0479,-0.9387,376,0,28.2
2026-07-30 12:07:09:840,-0.2504,-0.0517,-0.9505,380,0,28.2
2026-07-30 12:07:09:850,-0.2504,-0.0556,-0.9505,380,0,28.2
2026-07-30 12:07:09:860,-0.2581,-0.0556,-0.9584,380,0,28.2
2026-07-30 12:07:09:870,-0.262,-0.0479,-0.9426,376,0,28.2
2026-07-30 12:07:09:880,-0.2581,-0.0517,-0.9663,376,0,28.2
2026-07-30 12:07:09:890,-0.2736,-0.0556,-0.9663,376,0,28.2
2026-07-30 12:07:09:900,-0.2426,-0.0365,-0.9505,368,0,28.2
2026-07-30 12:07:09:910,-0.2736,-0.0479,-0.9545,368,0,28.2
2026-07-30 12:07:09:920,-0.2581,-0.0212,-0.9584,368,0,28.2
2026-07-30 12:07:09:930,-0.262,-0.0288,-0.9545,368,0,28.2
2026-07-30 12:07:09:940,-0.262,-0.0403,-0.9663,368,0,28.2
2026-07-30 12:07:09:950,-0.2813,-0.0288,-0.9387,372,0,28.2
2026-07-30 12:07:09:960,-0.2581,-0.0288,-0.9347,372,0,28.2
2026-07-30 12:07:09:970,-0.2659,-0.0403,-0.9545,372,0,28.2
2026-07-30 12:07:09:980,-0.2542,-0.0441,-0.9584,380,0,28.2
2026-07-30 12:07:09:990,-0.2542,-0.0556,-0.9466,380,0,28.2
2026-07-30 12:07:10:000,-0.262,-0.0479,-0.9466,380,0,28.2
2026-07-30 12:07:10:010,-0.262,-0.0517,-0.9545,380,0,28.2
2026-07-30 12:07:10:020,-0.262,-0.0441,-0.9624,380,0,28.2
2026-07-30 12:07:10:030,-0.2697,-0.0403,-0.9703,376,0,28.2
2026-07-30 12:07:10:040,-0.2542,-0.0441,-0.9466,376,0,28.2
2026-07-30 12:07:10:050,-0.2659,-0.0403,-0.9624,376,0,28.2
2026-07-30 12:07:10:060,-0.262,-0.0326,-0.9505,368,0,28.2
2026-07-30 12:07:10:070,-0.2697,-0.0517,-0.9545,368,0,28.2
2026-07-30 12:07:10:080,-0.2542,-0.0517,-0.9545,368,0,28.2
2026-07-30 12:07:10:090,-0.2465,-0.0441,-0.9584,368,0,28.2
2026-07-30 12:07:10:100,-0.2465,-0.0556,-0.9545,368,0,28.2
2026-07-30 12:07:10:110,-0.2542,-0.0517,-0.9584,376,0,28.2
2026-07-30 12:07:10:120,-0.2581,-0.0479,-0.9505,376,0,28.2
2026-07-30 12:07:10:130,-0.2697,-0.0556,-0.9663,380,0,28.2
2026-07-30 12:07:10:140,-0.2581,-0.0517,-0.9466,380,0,28.2
2026-07-30 12:07:10:150,-0.2697,-0.0365,-0.9663,380,0,28.2
2026-07-30 12:07:10:160,-0.2736,-0.0403,-0.9466,380,0,28.2
2026-07-30 12:07:10:170,-0.2736,-0.0403,-0.9505,380,0,28.2
2026-07-30 12:07:10:180,-0.2659,-0.0403,-0.9584,380,0,28.2
2026-07-30 12:07:10:190,-0.2581,-0.0441,-0.9703,376,0,28.2
2026-07-30 12:07:10:200,-0.2697,-0.0479,-0.9545,376,0,28.2
2026-07-30 12:07:10:210,-0.2775,-0.0441,-0.9703,368,0,28.2
2026-07-30 12:07:10:220,-0.2465,-0.0479,-0.9426,368,0,28.2
2026-07-30 12:07:10:230,-0.2426,-0.0479,-0.9426,368,0,28.2
2026-07-30 12:07:10:240,-0.2542,-0.0479,-0.9545,368,0,28.2
2026-07-30 12:07:10:250,-0.2542,-0.0441,-0.9545,368,0,28.2
2026-07-30 12:07:10:260,-0.2426,-0.0556,-0.9624,368,0,28.2
2026-07-30 12:07:10:270,-0.2581,-0.0479,-0.9545,376,0,28.2
2026-07-30 12:07:10:280,-0.2775,-0.0365,-0.9584,376,0,28.2
2026-07-30 12:07:10:290,-0.2659,-0.0479,-0.9624,380,0,28.2
2026-07-30 12:07:10:300,-0.2659,-0.0326,-0.9426,380,0,28.2
2026-07-30 12:07:10:310,-0.2542,-0.0403,-0.9663,380,0,28.2
2026-07-30 12:07:10:320,-0.2659,-0.0441,-0.9545,380,0,28.2
2026-07-30 12:07:10:330,-0.2659,-0.0365,-0.9545,380,0,28.2
2026-07-30 12:07:10:340,-0.2581,-0.0517,-0.9505,380,0,28.2
2026-07-30 12:07:10:350,-0.2697,-0.0403,-0.9624,372,0,28.2
2026-07-30 12:07:10:360,-0.2581,-0.0441,-0.9505,372,0,28.2
2026-07-30 12:07:10:370,-0.2542,-0.0365,-0.9426,368,0,28.2
2026-07-30 12:07:10:380,-0.2736,-0.0441,-0.9703,368,0,28.2
2026-07-30 12:07:10:390,-0.2775,-0.0594,-0.9742,368,0,28.2
2026-07-30 12:07:10:400,-0.2659,-0.0365,-0.9545,372,0,28.2
2026-07-30 12:07:10:410,-0.262,-0.0517,-0.9584,372,0,28.2
2026-07-30 12:07:10:420,-0.2736,-0.0441,-0.9545,372,0,28.2
2026-07-30 12:07:10:430,-0.2659,-0.0594,-0.9505,376,0,28.2
2026-07-30 12:07:10:440,-0.2581,-0.0747,-0.9505,376,0,28.2
2026-07-30 12:07:10:450,-0.2659,-0.0441,-0.9584,384,0,28.2
2026-07-30 12:07:10:460,-0.2697,-0.0517,-0.9663,384,0,28.2
2026-07-30 12:07:10:470,-0.2697,-0.0441,-0.9387,384,0,28.2
2026-07-30 12:07:10:480,-0.2659,-0.0556,-0.9624,380,0,28.2
2026-07-30 12:07:10:490,-0.2736,-0.0288,-0.9584,380,0,28.2
2026-07-30 12:07:10:500,-0.2581,-0.0632,-0.9624,380,0,28.2
2026-07-30 12:07:10:510,-0.2504,-0.0517,-0.9624,372,0,28.2
2026-07-30 12:07:10:520,-0.2581,-0.0403,-0.9545,372,0,28.2
2026-07-30 12:07:10:530,-0.2542,-0.0441,-0.9426,368,0,28.2
2026-07-30 12:07:10:540,-0.2542,-0.0441,-0.9505,368,0,28.2
2026-07-30 12:07:10:550,-0.2504,-0.0403,-0.9624,368,0,28.2
2026-07-30 12:07:10:560,-0.2659,-0.0403,-0.9466,372,0,28.2
2026-07-30 12:07:10:570,-0.2581,-0.0517,-0.9624,372,0,28.2
2026-07-30 12:07:10:580,-0.2542,-0.0479,-0.9663,380,0,28.2
2026-07-30 12:07:10:590,-0.262,-0.0517,-0.9584,380,0,28.2
2026-07-30 12:07:10:600,-0.262,-0.0479,-0.9584,380,0,28.2
2026-07-30 12:07:10:610,-0.2697,-0.0403,-0.9545,384,0,28.2
2026-07-30 12:07:10:620,-0.2504,-0.0517,-0.9545,384,0,28.2
2026-07-30 12:07:10:630,-0.2542,-0.0594,-0.9584,384,0,28.2
2026-07-30 12:07:10:640,-0.2581,-0.0365,-0.9584,380,0,28.2
2026-07-30 12:07:10:650,-0.2581,-0.0441,-0.9624,380,0,28.2
2026-07-30 12:07:10:660,-0.2581,-0.0441,-0.9466,372,0,28.2
2026-07-30 12:07:10:670,-0.2465,-0.0365,-0.9584,372,0,28.2
2026-07-30 12:07:10:680,-0.2465,-0.0326,-0.9505,372,0,28.2
2026-07-30 12:07:10:690,-0.2426,-0.0441,-0.9663,368,0,28.2
2026-07-30 12:07:10:700,-0.2542,-0.0479,-0.9505,368,0,28.2
2026-07-30 12:07:10:710,-0.2387,-0.0403,-0.9505,368,0,28.2
2026-07-30 12:07:10:720,-0.262,-0.0517,-0.9426,372,0,28.2
2026-07-30 12:07:10:730,-0.2542,-0.0556,-0.9663,372,0,28.2
2026-07-30 12:07:10:740,-0.2542,-0.0365,-0.9426,380,0,28.2
2026-07-30 12:07:10:750,-0.2659,-0.0441,-0.9584,380,0,28.2
2026-07-30 12:07:10:760,-0.2504,-0.0441,-0.9545,380,0,28.2
2026-07-30 12:07:10:770,-0.2542,-0.0403,-0.9624,384,0,28.2
2026-07-30 12:07:10:780,-0.2465,-0.0403,-0.9663,384,0,28.2
2026-07-30 12:07:10:790,-0.2542,-0.0556,-0.9703,384,0,28.2
2026-07-30 12:07:10:800,-0.2504,-0.0479,-0.9624,376,0,28.2
2026-07-30 12:07:10:810,-0.2465,-0.0517,-0.9742,376,0,28.2
2026-07-30 12:07:10:820,-0.2465,-0.0556,-0.9545,372,0,28.2
2026-07-30 12:07:10:830,-0.2504,-0.0594,-0.9584,372,0,28.2
2026-07-30 12:07:10:840,-0.2736,-0.0632,-0.9584,372,0,28.2
2026-07-30 12:07:10:850,-0.2387,-0.0556,-0.9426,368,0,28.2
2026-07-30 12:07:10:860,-0.2542,-0.0556,-0.9663,368,0,28.2
2026-07-30 12:07:10:870,-0.2504,-0.0594,-0.9782,368,0,28.2
2026-07-30 12:07:10:880,-0.2581,-0.0403,-0.9545,372,0,28.2
2026-07-30 12:07:10:890,-0.2426,-0.067,-0.9584,372,0,28.2
2026-07-30 12:07:10:900,-0.2426,-0.0632,-0.9703,380,0,28.2
2026-07-30 12:07:10:910,-0.2426,-0.0517,-0.9545,380,0,28.2
2026-07-30 12:07:10:920,-0.2271,-0.0517,-0.9703,380,0,28.2
2026-07-30 12:07:10:930,-0.2426,-0.067,-0.9584,380,0,28.2
2026-07-30 12:07:10:940,-0.2426,-0.0708,-0.9505,380,0,28.2
2026-07-30 12:07:10:950,-0.2349,-0.067,-0.9584,380,0,28.2
2026-07-30 12:07:10:960,-0.2465,-0.0517,-0.9624,376,0,28.2
2026-07-30 12:07:10:970,-0.2155,-0.0632,-0.9545,376,0,28.2
2026-07-30 12:07:10:980,-0.2232,-0.0517,-0.9545,368,0,28.2
2026-07-30 12:07:10:990,-0.2232,-0.0632,-0.9624,368,0,28.2
2026-07-30 12:07:11:000,-0.1458,-0.0747,-0.9663,368,0,28.2
2026-07-30 12:07:11:010,-0.3433,-0.0479,-0.9584,368,0,28.2
2026-07-30 12:07:11:020,-0.2813,-0.0785,-0.9861,368,0,28.2
2026-07-30 12:07:11:030,-0.231,-0.0899,-0.9584,368,0,28.2
2026-07-30 12:07:11:040,-0.2155,-0.0632,-0.9466,372,0,28.2
2026-07-30 12:07:11:050,-0.2387,-0.0517,-0.9545,372,0,28.2
2026-07-30 12:07:11:060,-0.2349,-0.025,-0.9742,380,0,28.2
2026-07-30 12:07:11:070,-0.2271,-0.0326,-0.9782,380,0,28.2
2026-07-30 12:07:11:080,-0.2116,-0.0403,-1.0019,380,0,28.2
2026-07-30 12:07:11:090,-0.2194,-0.067,-1.0296,380,0,28.2
2026-07-30 12:07:11:100,-0.1961,-0.0976,-1.0138,380,0,28.2
2026-07-30 12:07:11:110,-0.2194,-0.0861,-0.99,376,0,28.2
2026-07-30 12:07:11:120,-0.2116,-0.067,-0.99,376,0,28.2
2026-07-30 12:07:11:130,-0.2039,-0.0747,-0.9821,376,0,28.2
2026-07-30 12:07:11:140,-0.2039,-0.0594,-0.9782,368,0,28.2
2026-07-30 12:07:11:150,-0.2039,-0.0441,-0.9861,368,0,28.2
2026-07-30 12:07:11:160,-0.2465,-0.0823,-0.9703,368,0,28.2
2026-07-30 12:07:11:170,-0.2,-0.0212,-0.9742,372,0,28.2
2026-07-30 12:07:11:180,-0.1961,-0.0288,-0.9466,372,0,28.2
2026-07-30 12:07:11:190,-0.231,-0.0212,-0.9387,380,0,28.2
2026-07-30 12:07:11:200,-0.2542,-0.0288,-0.9387,380,0,28.2
2026-07-30 12:07:11:210,-0.2232,-0.025,-0.9426,380,0,28.2
2026-07-30 12:07:11:220,-0.2194,-0.025,-0.9505,384,0,28.2
2026-07-30 12:07:11:230,-0.2659,-0.025,-0.9149,384,0,28.2
2026-07-30 12:07:11:240,-0.2426,-0.0365,-0.9505,384,0,28.2
2026-07-30 12:07:11:250,-0.3433,-0.067,-0.9426,384,0,28.2
2026-07-30 12:07:11:260,-0.3395,-0.0441,-0.994,384,0,28.2
2026-07-30 12:07:11:270,-0.3743,-0.0938,-0.9149,376,0,28.2
2026-07-30 12:07:11:280,-0.3549,-0.1014,-0.907,376,0,28.2
2026-07-30 12:07:11:290,-0.3937,-0.1243,-0.8754,376,0,28.2
2026-07-30 12:07:11:300,-0.4479,-0.0861,-0.8754,368,0,28.2
2026-07-30 12:07:11:310,-0.4595,-0.1167,-0.8794,368,0,28.2
2026-07-30 12:07:11:320,-0.4673,-0.1473,-0.8873,368,0,28.2
2026-07-30 12:07:11:330,-0.5719,-0.132,-0.8715,364,0,28.2
2026-07-30 12:07:11:340,-0.5215,-0.1205,-0.828,364,0,28.2
2026-07-30 12:07:11:350,-0.4983,-0.132,-0.8715,372,0,28.2
2026-07-30 12:07:11:360,-0.5293,-0.1511,-0.8596,372,0,28.2
2026-07-30 12:07:11:370,-0.506,-0.1282,-0.824,372,0,28.2
2026-07-30 12:07:11:380,-0.506,-0.132,-0.8478,372,0,28.2
2026-07-30 12:07:11:390,-0.5176,-0.1282,-0.8399,372,0,28.2
2026-07-30 12:07:11:400,-0.506,-0.1473,-0.824,372,0,28.2
2026-07-30 12:07:11:410,-0.5176,-0.1587,-0.8359,372,0,28.2
2026-07-30 12:07:11:420,-0.4867,-0.1587,-0.8438,372,0,28.2
2026-07-30 12:07:11:430,-0.4905,-0.174,-0.8596,364,0,28.2
2026-07-30 12:07:11:440,-0.4673,-0.174,-0.8912,364,0,28.2
2026-07-30 12:07:11:450,-0.4595,-0.1855,-0.9387,364,0,28.2
2026-07-30 12:07:11:460,-0.4208,-0.1587,-0.911,356,0,28.2
2026-07-30 12:07:11:470,-0.444,-0.174,-0.8912,356,0,28.2
2026-07-30 12:07:11:480,-0.4518,-0.1816,-0.9229,356,0,28.2
2026-07-30 12:07:11:490,-0.3976,-0.1396,-0.8715,360,0,28.2
2026-07-30 12:07:11:500,-0.4905,-0.1358,-0.8715,360,0,28.2
2026-07-30 12:07:11:510,-0.4363,-0.1625,-0.907,368,0,28.2
2026-07-30 12:07:11:520,-0.4479,-0.1855,-0.8991,368,0,28.2
2026-07-30 12:07:11:530,-0.4595,-0.1664,-0.8715,368,0,28.2
2026-07-30 12:07:11:540,-0.4828,-0.1816,-0.8438,372,0,28.2
2026-07-30 12:07:11:550,-0.4053,-0.1358,-0.8636,372,0,28.2
2026-07-30 12:07:11:560,-0.4014,-0.1205,-0.8399,372,0,28.2
2026-07-30 12:07:11:570,-0.3898,-0.132,-0.824,368,0,28.2
2026-07-30 12:07:11:580,-0.4092,-0.1434,-0.8122,368,0,28.2
2026-07-30 12:07:11:590,-0.3898,-0.1625,-0.7924,360,0,28.2
2026-07-30 12:07:11:600,-0.3976,-0.1625,-0.8003,360,0,28.2
2026-07-30 12:07:11:610,-0.3704,-0.1587,-0.8122,360,0,28.2
2026-07-30 12:07:11:620,-0.4208,-0.2084,-0.8359,356,0,28.2
2026-07-30 12:07:11:630,-0.4634,-0.2046,-0.828,356,0,28.2
2026-07-30 12:07:11:640,-0.475,-0.2007,-0.8438,356,0,28.2
2026-07-30 12:07:11:650,-0.5835,-0.281,-0.8833,356,0,28.2
2026-07-30 12:07:11:660,-0.5254,-0.2657,-0.9229,356,0,28.2
2026-07-30 12:07:11:670,-0.4557,-0.2619,-0.9268,360,0,28.2
2026-07-30 12:07:11:680,-0.444,-0.2886,-0.9545,360,0,28.2
2026-07-30 12:07:11:690,-0.4092,-0.2237,-0.9742,360,0,28.2
2026-07-30 12:07:11:700,-0.4634,-0.216,-0.9584,368,0,28.2
2026-07-30 12:07:11:710,-0.4479,-0.2275,-0.994,368,0,28.2
2026-07-30 12:07:11:720,-0.444,-0.2351,-0.9663,368,0,28.2
2026-07-30 12:07:11:730,-0.4363,-0.1969,-0.9624,368,0,28.2
2026-07-30 12:07:11:740,-0.4053,-0.2122,-0.9861,368,0,28.2
2026-07-30 12:07:11:750,-0.4634,-0.2275,-0.9663,364,0,28.2
2026-07-30 12:07:11:760,-0.5293,-0.2542,-0.9387,364,0,28.2
2026-07-30 12:07:11:770,-0.5796,-0.281,-0.9387,364,0,28.2
2026-07-30 12:07:11:780,-0.6261,-0.2848,-0.8754,364,0,28.2
2026-07-30 12:07:11:790,-0.6222,-0.3039,-0.8161,364,0,28.2
2026-07-30 12:07:11:800,-0.5951,-0.3154,-0.7687,368,0,28.2
2026-07-30 12:07:11:810,-0.5719,-0.281,-0.7885,368,0,28.2
2026-07-30 12:07:11:820,-0.4828,-0.3268,-0.8043,368,0,28.2
2026-07-30 12:07:11:830,-0.4479,-0.2924,-0.824,380,0,28.2
2026-07-30 12:07:11:840,-0.4595,-0.3001,-0.8557,380,0,28.2
2026-07-30 12:07:11:850,-0.4518,-0.3001,-0.8636,380,0,28.2
2026-07-30 12:07:11:860,-0.4247,-0.2619,-0.8794,392,0,28.2
2026-07-30 12:07:11:870,-0.3859,-0.2122,-0.8873,392,0,28.2
2026-07-30 12:07:11:880,-0.3898,-0.1816,-0.9268,392,0,28.2
2026-07-30 12:07:11:890,-0.3976,-0.2046,-0.911,392,0,28.2
2026-07-30 12:07:11:900,-0.3898,-0.2046,-0.8873,392,0,28.2
2026-07-30 12:07:11:910,-0.3201,-0.174,-0.911,392,0,28.2
2026-07-30 12:07:11:920,-0.3317,-0.1434,-0.8991,392,0,28.2
2026-07-30 12:07:11:930,-0.3278,-0.1549,-0.8912,392,0,28.2
2026-07-30 12:07:11:940,-0.3085,-0.1396,-0.9149,392,0,28.2
2026-07-30 12:07:11:950,-0.3395,-0.1473,-0.9703,392,0,28.2
2026-07-30 12:07:11:960,-0.3549,-0.1625,-0.9782,404,0,28.2
2026-07-30 12:07:11:970,-0.293,-0.1664,-0.9821,404,0,28.2
2026-07-30 12:07:11:980,-0.2271,-0.0861,-0.9308,404,0,28.2
2026-07-30 12:07:11:990,-0.2,-0.0212,-0.9189,412,0,28.2
2026-07-30 12:07:12:000,-0.1496,-0.0059,-0.8952,412,0,28
2026-07-30 12:07:12:010,-0.1496,0.0094,-0.8794,420,0,28
2026-07-30 12:07:12:020,-0.1187,0.0438,-0.9031,420,0,28
2026-07-30 12:07:12:030,-0.0915,0.0782,-0.8952,420,0,28
2026-07-30 12:07:12:040,-0.1109,0.0935,-0.8873,416,0,28
2026-07-30 12:07:12:050,-0.1768,0.0705,-0.9426,416,0,28
2026-07-30 12:07:12:060,-0.2504,0.04,-0.9426,412,0,28
2026-07-30 12:07:12:070,-0.262,0.0438,-0.9426,412,0,28
2026-07-30 12:07:12:080,-0.1845,0.1202,-0.8715,412,0,28
2026-07-30 12:07:12:090,-0.138,0.1431,-0.832,412,0,28
2026-07-30 12:07:12:100,-0.0838,0.124,-0.7964,412,0,28
2026-07-30 12:07:12:110,-0.107,0.1355,-0.7806,424,0,28
2026-07-30 12:07:12:120,-0.1845,0.1813,-0.7885,424,0,28
2026-07-30 12:07:12:130,-0.2659,0.189,-0.8003,424,0,28
2026-07-30 12:07:12:140,-0.3356,0.1775,-0.8359,432,0,28
2026-07-30 12:07:12:150,-0.3549,0.124,-0.8517,432,0,28
2026-07-30 12:07:12:160,-0.3123,0.0935,-0.8675,432,0,28
2026-07-30 12:07:12:170,-0.1884,0.0744,-0.8399,436,0,28
2026-07-30 12:07:12:180,-0.0605,0.1011,-0.8122,436,0,28
2026-07-30 12:07:12:190,-0.0567,0.1546,-0.824,428,0,28
2026-07-30 12:07:12:200,-0.1148,0.1508,-0.8557,428,0,28
2026-07-30 12:07:12:210,-0.1303,0.1278,-0.828,428,0,28
2026-07-30 12:07:12:220,-0.1729,0.1355,-0.8833,420,0,28
2026-07-30 12:07:12:230,-0.1729,0.1049,-0.8873,420,0,28
2026-07-30 12:07:12:240,-0.1535,0.0858,-0.8833,420,0,28
2026-07-30 12:07:12:250,-0.1961,0.1011,-0.9466,420,0,28
2026-07-30 12:07:12:260,-0.1458,0.1011,-0.9347,420,0,28
2026-07-30 12:07:12:270,-0.0993,0.1011,-0.9031,428,0,28
2026-07-30 12:07:12:280,-0.138,0.0896,-0.8794,428,0,28
2026-07-30 12:07:12:290,-0.1884,0.1622,-0.9149,428,0,28
2026-07-30 12:07:12:300,-0.2504,0.2043,-0.9466,436,0,28
2026-07-30 12:07:12:310,-0.3007,0.2234,-0.9979,436,0,28
2026-07-30 12:07:12:320,-0.3123,0.189,-1.0138,436,0,28
2026-07-30 12:07:12:330,-0.2775,0.1393,-1.0058,432,0,28
2026-07-30 12:07:12:340,-0.2077,0.1049,-0.9742,432,0,28
2026-07-30 12:07:12:350,-0.1806,0.0973,-0.9347,424,0,28
2026-07-30 12:07:12:360,-0.2504,0.0782,-0.9426,424,0,28
2026-07-30 12:07:12:370,-0.3123,0.1431,-0.9545,424,0,28
2026-07-30 12:07:12:380,-0.3085,0.1737,-0.9703,416,0,28
2026-07-30 12:07:12:390,-0.2581,0.2081,-0.99,416,0,28
2026-07-30 12:07:12:400,-0.2116,0.2043,-0.9979,416,0,28
2026-07-30 12:07:12:410,-0.0915,0.2004,-0.9584,416,0,28
2026-07-30 12:07:12:420,-0.0605,0.231,-0.994,416,0,28
2026-07-30 12:07:12:430,-0.0567,0.2043,-0.994,424,0,28
2026-07-30 12:07:12:440,-0.2116,0.2081,-1.0296,424,0,28
2026-07-30 12:07:12:450,-0.2891,0.189,-1.0612,424,0,28
2026-07-30 12:07:12:460,-0.2968,0.1813,-1.073,432,0,28
2026-07-30 12:07:12:470,-0.2542,0.1813,-1.0651,432,0,28
2026-07-30 12:07:12:480,-0.2116,0.2043,-1.0335,432,0,28
2026-07-30 12:07:12:490,-0.169,0.2387,-0.9979,428,0,28
2026-07-30 12:07:12:500,-0.1613,0.2578,-0.9742,428,0,28
2026-07-30 12:07:12:510,-0.1419,0.2463,-0.911,420,0,28
2026-07-30 12:07:12:520,-0.1341,0.2387,-0.9149,420,0,28
2026-07-30 12:07:12:530,-0.1806,0.2195,-0.9229,420,0,28
2026-07-30 12:07:12:540,-0.1923,0.1966,-0.9466,416,0,28
2026-07-30 12:07:12:550,-0.1729,0.1813,-0.9624,416,0,28
2026-07-30 12:07:12:560,-0.1264,0.2119,-0.9584,416,0,28
2026-07-30 12:07:12:570,-0.0993,0.2195,-0.9308,416,0,28
2026-07-30 12:07:12:580,-0.1225,0.2387,-0.9268,416,0,28
2026-07-30 12:07:12:590,-0.1845,0.2425,-0.9742,428,0,28
2026-07-30 12:07:12:600,-0.2155,0.1966,-0.9624,428,0,28
2026-07-30 12:07:12:610,-0.2232,0.1737,-0.9466,428,0,28
2026-07-30 12:07:12:620,-0.1923,0.1813,-0.9545,436,0,28
2026-07-30 12:07:12:630,-0.169,0.189,-0.9466,436,0,28
2026-07-30 12:07:12:640,-0.1225,0.1966,-0.9387,432,0,28
2026-07-30 12:07:12:650,-0.1419,0.1928,-0.9584,432,0,28
2026-07-30 12:07:12:660,-0.1419,0.1661,-0.9821,432,0,28
2026-07-30 12:07:12:670,-0.1768,0.1546,-0.9663,424,0,28
2026-07-30 12:07:12:680,-0.2,0.1278,-0.9149,424,0,28
2026-07-30 12:07:12:690,-0.1729,0.1431,-0.9347,424,0,28
2026-07-30 12:07:12:700,-0.1225,0.1584,-0.9347,420,0,28
2026-07-30 12:07:12:710,-0.0954,0.1546,-0.9466,420,0,28
2026-07-30 12:07:12:720,-0.0877,0.1508,-0.9387,428,0,28
2026-07-30 12:07:12:730,-0.1187,0.1317,-0.9268,428,0,28
2026-07-30 12:07:12:740,-0.1574,0.1087,-0.9624,428,0,28
2026-07-30 12:07:12:750,-0.1884,0.1049,-0.9663,436,0,28
2026-07-30 12:07:12:760,-0.1961,0.0896,-0.9742,436,0,28
2026-07-30 12:07:12:770,-0.169,0.1011,-0.9821,436,0,28
2026-07-30 12:07:12:780,-0.1303,0.1011,-1.0019,440,0,28
2026-07-30 12:07:12:790,-0.1225,0.0896,-1.0098,440,0,28
2026-07-30 12:07:12:800,-0.1303,0.0629,-1.0256,436,0,28
2026-07-30 12:07:12:810,-0.1109,0.0476,-1.0217,436,0,28
2026-07-30 12:07:12:820,-0.1109,0.0591,-1.0019,436,0,28
2026-07-30 12:07:12:830,-0.0954,0.0629,-0.99,432,0,28
2026-07-30 12:07:12:840,-0.1032,0.0782,-1.0058,432,0,28
2026-07-30 12:07:12:850,-0.107,0.0667,-1.0217,432,0,28
2026-07-30 12:07:12:860,-0.0799,0.0514,-1.0138,428,0,28
2026-07-30 12:07:12:870,-0.0722,0.0591,-1.0256,428,0,28
2026-07-30 12:07:12:880,-0.0296,0.0629,-1.0019,432,0,28
2026-07-30 12:07:12:890,-0.0296,0.0782,-1.0058,432,0,28
2026-07-30 12:07:12:900,-0.0179,0.1049,-0.9782,432,0,28
2026-07-30 12:07:12:910,0.0131,0.0896,-0.9426,444,0,28
2026-07-30 12:07:12:920,0.0053,0.1049,-0.9229,444,0,28
2026-07-30 12:07:12:930,-0.0218,0.1126,-0.9426,444,0,28
2026-07-30 12:07:12:940,-0.0528,0.1087,-0.9466,448,0,28
2026-07-30 12:07:12:950,-0.0799,0.1164,-0.9821,448,0,28
2026-07-30 12:07:12:960,-0.0683,0.0973,-0.99,440,0,28
2026-07-30 12:07:12:970,-0.0412,0.1011,-0.9979,440,0,28
2026-07-30 12:07:12:980,-0.0528,0.1087,-0.9821,440,0,28
2026-07-30 12:07:12:990,-0.0412,0.1126,-0.9821,428,0,28
2026-07-30 12:07:13:000,-0.0102,0.1049,-0.9624,428,0,28
2026-07-30 12:07:13:010,-0.0334,0.124,-0.9663,428,0,28
2026-07-30 12:07:13:020,-0.0489,0.1202,-0.9663,428,0,28
2026-07-30 12:07:13:030,-0.0605,0.1317,-0.99,428,0,28
2026-07-30 12:07:13:040,-0.0412,0.147,-1.0058,432,0,28
2026-07-30 12:07:13:050,-0.0451,0.1393,-1.0138,432,0,28
2026-07-30 12:07:13:060,-0.0451,0.1278,-1.0138,432,0,28
2026-07-30 12:07:13:070,-0.0605,0.147,-1.0019,440,0,28
2026-07-30 12:07:13:080,-0.0334,0.1317,-1.0098,440,0,28
2026-07-30 12:07:13:090,-0.0451,0.1355,-1.0058,440,0,28
2026-07-30 12:07:13:100,-0.0605,0.1278,-1.0058,440,0,28
2026-07-30 12:07:13:110,-0.0722,0.1087,-1.0177,440,0,28
2026-07-30 12:07:13:120,-0.076,0.1126,-1.0217,432,0,28
2026-07-30 12:07:13:130,-0.0644,0.1278,-1.0256,432,0,28
2026-07-30 12:07:13:140,-0.0334,0.1087,-1.0177,432,0,28
2026-07-30 12:07:13:150,-0.0257,0.1126,-0.9979,424,0,28
2026-07-30 12:07:13:160,-0.0296,0.1317,-0.9979,424,0,28
2026-07-30 12:07:13:170,-0.0334,0.1202,-1.0058,420,0,28
2026-07-30 12:07:13:180,-0.0528,0.1049,-0.9979,420,0,28
2026-07-30 12:07:13:190,-0.0644,0.0935,-0.9782,420,0,28
2026-07-30 12:07:13:200,-0.0605,0.1049,-0.9703,428,0,28
2026-07-30 12:07:13:210,-0.0877,0.1126,-0.9821,428,0,28
2026-07-30 12:07:13:220,-0.0954,0.1087,-0.9821,428,0,28
2026-07-30 12:07:13:230,-0.0722,0.1087,-1.0019,436,0,28
2026-07-30 12:07:13:240,-0.0567,0.124,-0.9742,436,0,28
2026-07-30 12:07:13:250,-0.0567,0.1164,-0.9742,436,0,28
2026-07-30 12:07:13:260,-0.0722,0.1126,-0.994,436,0,28
2026-07-30 12:07:13:270,-0.0838,0.1087,-0.9782,436,0,28
2026-07-30 12:07:13:280,-0.0605,0.1126,-0.9545,428,0,28
2026-07-30 12:07:13:290,-0.076,0.1202,-0.9663,428,0,28
2026-07-30 12:07:13:300,-0.0722,0.0896,-0.9545,428,0,28
2026-07-30 12:07:13:310,-0.0605,0.0935,-0.9545,420,0,28
2026-07-30 12:07:13:320,-0.0644,0.1087,-0.9545,420,0,28
2026-07-30 12:07:13:330,-0.0683,0.1011,-0.9703,420,0,28
2026-07-30 12:07:13:340,-0.0567,0.0973,-0.9742,420,0,28
2026-07-30 12:07:13:350,-0.0644,0.1049,-0.994,420,0,28
2026-07-30 12:07:13:360,-0.0722,0.0858,-0.994,424,0,28
2026-07-30 12:07:13:370,-0.0605,0.0705,-1.0098,424,0,28
2026-07-30 12:07:13:380,-0.0528,0.0744,-0.994,424,0,28
2026-07-30 12:07:13:390,-0.0296,0.0629,-0.9782,432,0,28
2026-07-30 12:07:13:400,-0.0489,0.0629,-0.9782,432,0,28
2026-07-30 12:07:13:410,-0.0296,0.0591,-0.994,432,0,28
2026-07-30 12:07:13:420,-0.0296,0.0858,-1.0098,432,0,28
2026-07-30 12:07:13:430,-0.0257,0.0552,-1.0454,432,0,28
2026-07-30 12:07:13:440,-0.0451,0.0514,-1.0414,420,0,28
2026-07-30 12:07:13:450,-0.0296,0.0438,-1.0375,420,0,28
2026-07-30 12:07:13:460,-0.0063,0.0476,-1.0138,420,0,28
2026-07-30 12:07:13:470,0.0131,0.0514,-0.9979,416,0,28
2026-07-30 12:07:13:480,0.0208,0.0667,-0.9861,416,0,28
2026-07-30 12:07:13:490,0.0092,0.0552,-0.9584,416,0,28
2026-07-30 12:07:13:500,0.0014,0.0629,-0.9624,416,0,28
2026-07-30 12:07:13:510,0.0014,0.0438,-0.9663,416,0,28
2026-07-30 12:07:13:520,-0.0063,0.0782,-0.9703,424,0,28
2026-07-30 12:07:13:530,-0.0102,0.0629,-0.9624,424,0,28
2026-07-30 12:07:13:540,-0.0063,0.0705,-0.9663,432,0,28
2026-07-30 12:07:13:550,0.0053,0.0591,-0.9466,432,0,28
2026-07-30 12:07:13:560,0.0247,0.0935,-0.9426,432,0,28
2026-07-30 12:07:13:570,0.0402,0.0973,-0.9268,428,0,28
2026-07-30 12:07:13:580,0.0324,0.0896,-0.9149,428,0,28
2026-07-30 12:07:13:590,-0.0257,0.0896,-0.9031,428,0,28
2026-07-30 12:07:13:600,-0.0334,0.0744,-0.9229,420,0,28
2026-07-30 12:07:13:610,-0.0334,0.0858,-0.9426,420,0,28
2026-07-30 12:07:13:620,-0.0373,0.0935,-0.9505,412,0,28
2026-07-30 12:07:13:630,-0.0296,0.1049,-0.9505,412,0,28
2026-07-30 12:07:13:640,-0.0605,0.0858,-0.994,412,0,28
2026-07-30 12:07:13:650,-0.0644,0.0782,-0.9782,416,0,28
2026-07-30 12:07:13:660,-0.0528,0.0896,-0.994,416,0,28
2026-07-30 12:07:13:670,-0.0334,0.082,-0.9624,416,0,28
2026-07-30 12:07:13:680,-0.0296,0.082,-0.9426,424,0,28
2026-07-30 12:07:13:690,-0.0605,0.0782,-0.9505,424,0,28
2026-07-30 12:07:13:700,-0.0567,0.0858,-0.9584,428,0,28
2026-07-30 12:07:13:710,-0.0489,0.0973,-0.9821,428,0,28
2026-07-30 12:07:13:720,-0.0412,0.1087,-0.9703,428,0,28
2026-07-30 12:07:13:730,-0.0605,0.1011,-1.0019,424,0,28
2026-07-30 12:07:13:740,-0.0567,0.0896,-0.994,424,0,28
2026-07-30 12:07:13:750,-0.0451,0.0782,-0.99,424,0,28
2026-07-30 12:07:13:760,-0.0296,0.0476,-0.9782,416,0,28
2026-07-30 12:07:13:770,-0.0179,0.0705,-0.9466,416,0,28
2026-07-30 12:07:13:780,-0.0257,0.0782,-0.9466,412,0,28
2026-07-30 12:07:13:790,-0.0218,0.0858,-0.9703,412,0,28
2026-07-30 12:07:13:800,-0.0296,0.1126,-0.9861,412,0,28
2026-07-30 12:07:13:810,-0.0218,0.1011,-0.9782,416,0,28
2026-07-30 12:07:13:820,-0.0334,0.1011,-0.9861,416,0,28
2026-07-30 12:07:13:830,-0.0334,0.0935,-1.0058,416,0,28
2026-07-30 12:07:13:840,-0.0179,0.0896,-0.9979,424,0,28
2026-07-30 12:07:13:850,-0.0063,0.1011,-0.9782,424,0,28
2026-07-30 12:07:13:860,-0.0218,0.1126,-0.994,428,0,28
2026-07-30 12:07:13:870,-0.0334,0.0973,-0.994,428,0,28
2026-07-30 12:07:13:880,-0.0412,0.1126,-0.99,428,0,28
2026-07-30 12:07:13:890,-0.0489,0.1049,-0.9979,424,0,28
2026-07-30 12:07:13:900,-0.0567,0.0973,-1.0256,424,0,28
2026-07-30 12:07:13:910,-0.0605,0.082,-1.0138,424,0,28
2026-07-30 12:07:13:920,-0.0334,0.082,-1.0019,412,0,28
2026-07-30 12:07:13:930,-0.0296,0.1011,-1.0217,412,0,28
2026-07-30 12:07:13:940,-0.0373,0.0935,-1.0296,412,0,28
2026-07-30 12:07:13:950,-0.0296,0.1011,-1.0058,412,0,28
2026-07-30 12:07:13:960,-0.0141,0.1126,-0.99,412,0,28
2026-07-30 12:07:13:970,-0.0102,0.0973,-0.9861,416,0,28
2026-07-30 12:07:13:980,-0.0257,0.0973,-0.9979,416,0,28
2026-07-30 12:07:13:990,-0.0257,0.082,-0.9979,424,0,28
2026-07-30 12:07:14:000,-0.0179,0.0744,-0.99,424,0,28
2026-07-30 12:07:14:010,0.0053,0.0935,-0.9861,424,0,28
2026-07-30 12:07:14:020,0.0092,0.082,-0.9861,428,0,28
2026-07-30 12:07:14:030,0.0092,0.082,-0.9703,428,0,28
2026-07-30 12:07:14:040,-0.0063,0.082,-0.9742,428,0,28
2026-07-30 12:07:14:050,-0.0102,0.0629,-0.9703,424,0,28
2026-07-30 12:07:14:060,0.0131,0.082,-0.9742,424,0,28
2026-07-30 12:07:14:070,0.0208,0.0591,-0.9742,416,0,28
2026-07-30 12:07:14:080,0.0131,0.0782,-0.9742,416,0,28
2026-07-30 12:07:14:090,-0.0179,0.0744,-0.9742,416,0,28
2026-07-30 12:07:14:100,0.0053,0.0629,-0.9663,416,0,28
2026-07-30 12:07:14:110,-0.0024,0.0514,-0.9426,416,0,28
2026-07-30 12:07:14:120,-0.0024,0.0744,-0.9703,416,0,28
2026-07-30 12:07:14:130,-0.0102,0.0591,-0.9782,420,0,28
2026-07-30 12:07:14:140,-0.0102,0.0591,-0.9742,420,0,28
2026-07-30 12:07:14:150,-0.0141,0.0744,-0.9663,432,0,28
2026-07-30 12:07:14:160,-0.0024,0.0552,-0.9821,432,0,28
2026-07-30 12:07:14:170,0.0053,0.0705,-0.9545,432,0,28
2026-07-30 12:07:14:180,0.0014,0.082,-0.9584,432,0,28
2026-07-30 12:07:14:190,0.0169,0.0629,-0.9624,432,0,28
2026-07-30 12:07:14:200,0.0092,0.0744,-0.9545,432,0,28
2026-07-30 12:07:14:210,-0.0102,0.0896,-0.9742,428,0,28
2026-07-30 12:07:14:220,0.0092,0.0858,-0.9663,428,0,28
2026-07-30 12:07:14:230,-0.0257,0.082,-0.9624,420,0,28
2026-07-30 12:07:14:240,-0.0102,0.0973,-0.9308,420,0,28
2026-07-30 12:07:14:250,-0.0257,0.0705,-0.9466,420,0,28
2026-07-30 12:07:14:260,-0.0296,0.1011,-0.9545,420,0,28
2026-07-30 12:07:14:270,0.0208,0.0782,-0.9584,420,0,28
2026-07-30 12:07:14:280,0.0247,0.082,-0.9584,420,0,28
2026-07-30 12:07:14:290,-0.0141,0.0935,-0.9584,428,0,28
2026-07-30 12:07:14:300,-0.0567,0.1164,-1.0256,428,0,28
2026-07-30 12:07:14:310,-0.0567,0.0896,-1.0375,436,0,28
2026-07-30 12:07:14:320,-0.0373,0.082,-1.0019,436,0,28
2026-07-30 12:07:14:330,-0.0334,0.0896,-1.0019,436,0,28
2026-07-30 12:07:14:340,-0.0257,0.082,-0.9703,440,0,28
2026-07-30 12:07:14:350,-0.0412,0.0896,-0.9624,440,0,28
2026-07-30 12:07:14:360,-0.0451,0.0935,-0.9703,440,0,28
2026-07-30 12:07:14:370,0.0014,0.0935,-0.9782,432,0,28
2026-07-30 12:07:14:380,-0.0063,0.0935,-0.9663,432,0,28
2026-07-30 12:07:14:390,-0.0605,0.0935,-0.994,428,0,28
2026-07-30 12:07:14:400,-0.0605,0.082,-1.0019,428,0,28
2026-07-30 12:07:14:410,-0.0451,0.0896,-1.0019,428,0,28
2026-07-30 12:07:14:420,-0.0218,0.1049,-1.0019,428,0,28
2026-07-30 12:07:14:430,0.0169,0.0973,-1.0138,428,0,28
2026-07-30 12:07:14:440,0.0208,0.0782,-0.9979,436,0,28
2026-07-30 12:07:14:450,-0.0218,0.0973,-0.9703,436,0,28
2026-07-30 12:07:14:460,-0.0296,0.0973,-0.9782,436,0,28
2026-07-30 12:07:14:470,-0.0296,0.0896,-0.9782,448,0,28
2026-07-30 12:07:14:480,-0.0296,0.0935,-0.994,448,0,28
2026-07-30 12:07:14:490,-0.0179,0.0935,-1.0058,448,0,28
2026-07-30 12:07:14:500,-0.0141,0.1087,-1.0058,448,0,28
2026-07-30 12:07:14:510,-0.0257,0.1164,-1.0019,448,0,28
2026-07-30 12:07:14:520,0.0053,0.1278,-0.9782,440,0,28
2026-07-30 12:07:14:530,0.0014,0.124,-0.9782,440,0,28
2026-07-30 12:07:14:540,-0.0063,0.1011,-0.9782,440,0,28
2026-07-30 12:07:14:550,-0.0296,0.0896,-0.99,436,0,28
2026-07-30 12:07:14:560,-0.0218,0.0782,-0.9663,436,0,28
2026-07-30 12:07:14:570,-0.0063,0.1011,-0.9545,436,0,28
2026-07-30 12:07:14:580,0.0092,0.0858,-0.9584,440,0,28
2026-07-30 12:07:14:590,0.0014,0.0973,-0.9742,440,0,28
2026-07-30 12:07:14:600,0.0014,0.1087,-0.9742,448,0,28
2026-07-30 12:07:14:610,0.0053,0.1011,-0.994,448,0,28
2026-07-30 12:07:14:620,0.0208,0.0935,-1.0058,448,0,28
2026-07-30 12:07:14:630,0.0247,0.1011,-1.0058,456,0,28
2026-07-30 12:07:14:640,0.0092,0.1126,-0.994,456,0,28
2026-07-30 12:07:14:650,0.0169,0.0935,-0.994,456,0,28
2026-07-30 12:07:14:660,0.0053,0.1049,-0.9821,456,0,28
2026-07-30 12:07:14:670,-0.0024,0.1164,-0.9861,456,0,28
2026-07-30 12:07:14:680,0.0014,0.1126,-0.9861,448,0,28
2026-07-30 12:07:14:690,0.0169,0.1126,-0.9624,448,0,28
2026-07-30 12:07:14:700,0.0131,0.124,-0.9308,448,0,28
2026-07-30 12:07:14:710,0.0169,0.1126,-0.9387,444,0,28
2026-07-30 12:07:14:720,-0.0141,0.1164,-0.9505,444,0,28
2026-07-30 12:07:14:730,-0.0063,0.1164,-0.9703,444,0,28
2026-07-30 12:07:14:740,0.0169,0.1087,-0.9821,452,0,28
2026-07-30 12:07:14:750,0.0131,0.124,-0.9624,452,0,28
2026-07-30 12:07:14:760,0.0092,0.1164,-0.9821,464,0,28
2026-07-30 12:07:14:770,0.0169,0.1126,-0.99,464,0,28
2026-07-30 12:07:14:780,0.0208,0.1278,-0.9782,464,0,28
2026-07-30 12:07:14:790,0.0479,0.124,-0.9663,472,0,28
2026-07-30 12:07:14:800,0.0557,0.1164,-0.9505,472,0,28
2026-07-30 12:07:14:810,0.0324,0.124,-0.9466,472,0,28
2026-07-30 12:07:14:820,0.0131,0.124,-0.9308,472,0,28
2026-07-30 12:07:14:830,0.0053,0.1164,-0.9466,472,0,28
2026-07-30 12:07:14:840,0.0053,0.1355,-0.9703,464,0,28
2026-07-30 12:07:14:850,0.0131,0.1202,-0.9426,464,0,28
2026-07-30 12:07:14:860,0.0169,0.1278,-0.9703,464,0,28
2026-07-30 12:07:14:870,0.0014,0.147,-0.9861,460,0,28
2026-07-30 12:07:14:880,0.0092,0.1546,-0.9821,460,0,28
2026-07-30 12:07:14:890,-0.0024,0.1546,-0.9821,468,0,28
2026-07-30 12:07:14:900,0.0053,0.1393,-0.9742,468,0,28
2026-07-30 12:07:14:910,0.0247,0.1393,-0.9505,468,0,28
2026-07-30 12:07:14:920,0.0053,0.147,-0.9584,480,0,28
2026-07-30 12:07:14:930,0.0092,0.1584,-0.9545,480,0,28
2026-07-30 12:07:14:940,-0.0218,0.1546,-0.9742,480,0,28
2026-07-30 12:07:14:950,-0.0179,0.1852,-0.9426,488,0,28
2026-07-30 12:07:14:960,-0.0102,0.1622,-0.9545,488,0,28
2026-07-30 12:07:14:970,-0.0218,0.1661,-0.9663,484,0,28
2026-07-30 12:07:14:980,-0.0528,0.1813,-0.9742,484,0,28
2026-07-30 12:07:14:990,-0.0799,0.1852,-0.9742,484,0,28
2026-07-30 12:07:15:000,-0.0644,0.1813,-0.9584,472,0,28
2026-07-30 12:07:15:010,-0.0451,0.1852,-0.9703,472,0,28
2026-07-30 12:07:15:020,-0.0489,0.2004,-0.9624,468,0,28
2026-07-30 12:07:15:030,-0.0296,0.1852,-0.9426,468,0,28
2026-07-30 12:07:15:040,-0.0296,0.1775,-0.9505,468,0,28
2026-07-30 12:07:15:050,-0.0296,0.1699,-0.9545,476,0,28
2026-07-30 12:07:15:060,-0.0296,0.1775,-0.9663,476,0,28
2026-07-30 12:07:15:070,-0.0257,0.1699,-0.9742,484,0,28
2026-07-30 12:07:15:080,-0.0451,0.1622,-0.9821,484,0,28
2026-07-30 12:07:15:090,-0.0334,0.1508,-0.99,484,0,28
2026-07-30 12:07:15:100,-0.0373,0.1584,-1.0058,484,0,28
2026-07-30 12:07:15:110,-0.0451,0.1393,-0.9861,484,0,28
2026-07-30 12:07:15:120,-0.0412,0.1202,-0.9979,484,0,28
2026-07-30 12:07:15:130,-0.0179,0.1431,-0.9861,472,0,28
2026-07-30 12:07:15:140,-0.0257,0.1317,-0.9821,472,0,28
2026-07-30 12:07:15:150,-0.0451,0.1164,-0.9782,464,0,28
2026-07-30 12:07:15:160,-0.0257,0.124,-0.9861,464,0,28
2026-07-30 12:07:15:170,-0.0257,0.1278,-0.9861,464,0,28
2026-07-30 12:07:15:180,-0.0102,0.124,-1.0058,456,0,28
2026-07-30 12:07:15:190,-0.0218,0.1393,-1.0019,456,0,28
2026-07-30 12:07:15:200,-0.0179,0.1202,-0.9782,456,0,28
2026-07-30 12:07:15:210,-0.0179,0.1278,-0.9782,464,0,28
2026-07-30 12:07:15:220,-0.0024,0.1126,-0.99,464,0,28
2026-07-30 12:07:15:230,-0.0102,0.1317,-0.99,472,0,28
2026-07-30 12:07:15:240,-0.0063,0.1202,-0.9663,472,0,28
2026-07-30 12:07:15:250,-0.0218,0.124,-0.994,472,0,28
2026-07-30 12:07:15:260,-0.0373,0.1126,-0.9742,472,0,28
2026-07-30 12:07:15:270,-0.0179,0.1164,-0.9821,472,0,28
2026-07-30 12:07:15:280,-0.0063,0.1126,-0.99,472,0,28
2026-07-30 12:07:15:290,-0.0063,0.1164,-0.99,464,0,28
2026-07-30 12:07:15:300,-0.0024,0.1164,-0.994,464,0,28
2026-07-30 12:07:15:310,-0.0063,0.1278,-0.9821,452,0,28
2026-07-30 12:07:15:320,-0.0179,0.1317,-0.9821,452,0,28
2026-07-30 12:07:15:330,-0.0179,0.124,-0.9861,452,0,28
2026-07-30 12:07:15:340,-0.0218,0.124,-0.9584,452,0,28
2026-07-30 12:07:15:350,-0.0102,0.1049,-0.9663,452,0,28
2026-07-30 12:07:15:360,-0.0102,0.1278,-0.9703,452,0,28
2026-07-30 12:07:15:370,-0.0024,0.1049,-0.9821,456,0,28
2026-07-30 12:07:15:380,0.0014,0.1278,-0.9821,456,0,28
2026-07-30 12:07:15:390,-0.0102,0.1317,-0.9584,464,0,28
2026-07-30 12:07:15:400,-0.0141,0.124,-0.9703,464,0,28
2026-07-30 12:07:15:410,-0.0141,0.124,-0.9821,464,0,28
2026-07-30 12:07:15:420,-0.0141,0.1317,-0.9861,464,0,28
2026-07-30 12:07:15:430,0.0092,0.1164,-0.9584,464,0,28
2026-07-30 12:07:15:440,-0.0141,0.1126,-0.9821,456,0,28
2026-07-30 12:07:15:450,-0.0102,0.1317,-0.9584,456,0,28
2026-07-30 12:07:15:460,0.0053,0.1355,-0.9584,456,0,28
2026-07-30 12:07:15:470,-0.0102,0.1011,-0.9663,444,0,28
2026-07-30 12:07:15:480,-0.0141,0.0935,-0.9624,444,0,28
2026-07-30 12:07:15:490,-0.0296,0.1087,-0.9624,444,0,28
2026-07-30 12:07:15:500,-0.0179,0.1087,-0.9821,444,0,28
2026-07-30 12:07:15:510,0.0014,0.1087,-0.9742,444,0,28
2026-07-30 12:07:15:520,-0.0102,0.1011,-0.9782,452,0,28
2026-07-30 12:07:15:530,-0.0141,0.1011,-0.99,452,0,28
2026-07-30 12:07:15:540,-0.0179,0.0896,-0.9663,452,0,28
2026-07-30 12:07:15:550,-0.0141,0.0973,-0.9782,460,0,28
2026-07-30 12:07:15:560,0.0053,0.1011,-0.9703,460,0,28
2026-07-30 12:07:15:570,-0.0102,0.0973,-0.9663,460,0,28
2026-07-30 12:07:15:580,-0.0179,0.0896,-0.9703,456,0,28
2026-07-30 12:07:15:590,-0.0024,0.1049,-0.9782,456,0,28
2026-07-30 12:07:15:600,-0.0141,0.0973,-0.9821,444,0,28
2026-07-30 12:07:15:610,-0.0102,0.0935,-0.9861,444,0,28
2026-07-30 12:07:15:620,-0.0102,0.1049,-0.9782,444,0,28
2026-07-30 12:07:15:630,-0.0024,0.1126,-0.9703,436,0,28
2026-07-30 12:07:15:640,0.0092,0.1049,-0.9742,436,0,28
2026-07-30 12:07:15:650,0.0014,0.1202,-0.9782,436,0,28
2026-07-30 12:07:15:660,0.0053,0.1164,-0.9703,440,0,28
2026-07-30 12:07:15:670,-0.0063,0.1049,-0.9821,440,0,28
2026-07-30 12:07:15:680,-0.0179,0.1087,-0.99,444,0,28
2026-07-30 12:07:15:690,-0.0063,0.0896,-0.9821,444,0,28
2026-07-30 12:07:15:700,-0.0024,0.1278,-0.9584,444,0,28
2026-07-30 12:07:15:710,0.0014,0.1278,-0.9742,452,0,28
2026-07-30 12:07:15:720,0.0014,0.124,-0.9663,452,0,28
2026-07-30 12:07:15:730,0.0092,0.1126,-0.9861,452,0,28
2026-07-30 12:07:15:740,-0.0063,0.1202,-0.9861,444,0,28
2026-07-30 12:07:15:750,-0.0102,0.124,-0.9782,444,0,28
2026-07-30 12:07:15:760,-0.0063,0.1202,-0.9821,432,0,28
2026-07-30 12:07:15:770,0.0053,0.1087,-0.9821,432,0,28
2026-07-30 12:07:15:780,0.0014,0.1087,-0.9821,432,0,28
2026-07-30 12:07:15:790,0.0014,0.124,-0.9821,428,0,28
2026-07-30 12:07:15:800,0.0053,0.1011,-0.9782,428,0,28
2026-07-30 12:07:15:810,0.0053,0.1202,-0.9782,428,0,28
2026-07-30 12:07:15:820,0.0092,0.1202,-0.9663,428,0,28
2026-07-30 12:07:15:830,0.0092,0.124,-0.9663,428,0,28
2026-07-30 12:07:15:840,0.0014,0.1202,-0.9703,436,0,28
2026-07-30 12:07:15:850,-0.0024,0.1049,-0.9742,436,0,28
2026-07-30 12:07:15:860,0.0053,0.1011,-0.9545,436,0,28
2026-07-30 12:07:15:870,-0.0102,0.0935,-0.9782,440,0,28
2026-07-30 12:07:15:880,0.0131,0.0858,-0.9742,440,0,28
2026-07-30 12:07:15:890,0.0131,0.1087,-0.9742,432,0,28
2026-07-30 12:07:15:900,-0.0063,0.0896,-0.9703,432,0,28
2026-07-30 12:07:15:910,-0.0102,0.0935,-0.9703,432,0,28
2026-07-30 12:07:15:920,0.0053,0.0935,-0.9703,424,0,28
2026-07-30 12:07:15:930,0.0131,0.1049,-0.9821,424,0,28
2026-07-30 12:07:15:940,0.0014,0.0973,-0.9782,424,0,28
2026-07-30 12:07:15:950,0.0092,0.1049,-0.9545,416,0,28
2026-07-30 12:07:15:960,0.0092,0.0858,-0.9584,416,0,28
2026-07-30 12:07:15:970,0.0014,0.0858,-0.9624,420,0,28
2026-07-30 12:07:15:980,-0.0102,0.0935,-0.9861,420,0,28
2026-07-30 12:07:15:990,0.0014,0.0896,-0.994,420,0,28
2026-07-30 12:07:16:000,0.0053,0.0896,-0.9782,428,0,28
2026-07-30 12:07:16:010,-0.0024,0.0858,-0.9782,428,0,28
2026-07-30 12:07:16:020,0.0014,0.0973,-0.9703,428,0,28
2026-07-30 12:07:16:030,0.0208,0.1049,-0.9663,428,0,28
2026-07-30 12:07:16:040,0.0131,0.1011,-0.9742,428,0,28
2026-07-30 12:07:16:050,0.0131,0.0935,-0.9782,420,0,28
2026-07-30 12:07:16:060,0.0324,0.1011,-0.9703,420,0,28
2026-07-30 12:07:16:070,0.0131,0.0896,-0.9782,420,0,28
2026-07-30 12:07:16:080,0.0053,0.0973,-0.9821,412,0,28
2026-07-30 12:07:16:090,0.0092,0.0858,-0.994,412,0,28
2026-07-30 12:07:16:100,0.0131,0.0782,-0.99,412,0,28
2026-07-30 12:07:16:110,0.0169,0.0858,-0.99,408,0,28
2026-07-30 12:07:16:120,0.0285,0.0896,-0.9742,408,0,28
2026-07-30 12:07:16:130,0.0092,0.0858,-0.9742,412,0,28
2026-07-30 12:07:16:140,-0.0102,0.0782,-0.9782,412,0,28
2026-07-30 12:07:16:150,-0.0296,0.0858,-0.9663,412,0,28
2026-07-30 12:07:16:160,-0.0257,0.0744,-0.99,416,0,28
2026-07-30 12:07:16:170,-0.0218,0.0705,-0.99,416,0,28
2026-07-30 12:07:16:180,-0.0141,0.0629,-0.9663,416,0,28
2026-07-30 12:07:16:190,-0.0296,0.0973,-0.9347,420,0,28
2026-07-30 12:07:16:200,-0.0528,0.0744,-0.9584,420,0,28
2026-07-30 12:07:16:210,-0.0334,0.0935,-0.9545,412,0,28
2026-07-30 12:07:16:220,-0.0257,0.082,-0.9821,412,0,28
2026-07-30 12:07:16:230,-0.0334,0.082,-0.9782,412,0,28
2026-07-30 12:07:16:240,0.0014,0.0782,-0.9505,404,0,28
2026-07-30 12:07:16:250,-0.0141,0.1049,-0.9584,404,0,28
2026-07-30 12:07:16:260,-0.0489,0.0896,-0.994,404,0,28
2026-07-30 12:07:16:270,-0.0451,0.0935,-0.994,396,0,28
2026-07-30 12:07:16:280,-0.0179,0.0935,-0.99,396,0,28
2026-07-30 12:07:16:290,-0.0257,0.1126,-0.9861,404,0,28
2026-07-30 12:07:16:300,-0.0373,0.0973,-0.9782,404,0,28
2026-07-30 12:07:16:310,-0.0528,0.0858,-0.9624,404,0,28
2026-07-30 12:07:16:320,-0.0451,0.0935,-0.9545,412,0,28
2026-07-30 12:07:16:330,-0.0218,0.0896,-0.9545,412,0,28
2026-07-30 12:07:16:340,-0.0141,0.1126,-0.99,412,0,28
2026-07-30 12:07:16:350,-0.0257,0.1202,-0.9979,412,0,28
2026-07-30 12:07:16:360,-0.0218,0.1126,-1.0217,412,0,28
2026-07-30 12:07:16:370,-0.0141,0.1011,-1.0296,404,0,28
2026-07-30 12:07:16:380,-0.0257,0.0973,-0.9821,404,0,28
2026-07-30 12:07:16:390,-0.0179,0.1087,-0.9505,404,0,28
2026-07-30 12:07:16:400,-0.0373,0.1126,-0.9545,392,0,28
2026-07-30 12:07:16:410,-0.076,0.1087,-0.99,392,0,28
2026-07-30 12:07:16:420,-0.0877,0.1011,-1.0177,392,0,28
2026-07-30 12:07:16:430,-0.1032,0.0896,-1.0335,392,0,28
2026-07-30 12:07:16:440,-0.0915,0.0896,-1.0138,392,0,28
2026-07-30 12:07:16:450,-0.0644,0.1011,-0.99,404,0,28
2026-07-30 12:07:16:460,-0.0296,0.0896,-0.9624,404,0,28
2026-07-30 12:07:16:470,-0.0218,0.0973,-0.9308,404,0,28
2026-07-30 12:07:16:480,-0.0644,0.0858,-0.911,412,0,28
2026-07-30 12:07:16:490,-0.0954,0.1049,-0.9347,412,0,28
2026-07-30 12:07:16:500,-0.0799,0.0782,-0.99,412,0,28
2026-07-30 12:07:16:510,-0.0644,0.0744,-1.0019,412,0,28
2026-07-30 12:07:16:520,-0.076,0.0858,-1.0138,412,0,28
2026-07-30 12:07:16:530,-0.0722,0.082,-1.0019,404,0,28
2026-07-30 12:07:16:540,-0.0799,0.1087,-0.99,404,0,28
2026-07-30 12:07:16:550,-0.0528,0.1049,-0.9663,404,0,28
2026-07-30 12:07:16:560,-0.0296,0.0935,-0.994,392,0,28
2026-07-30 12:07:16:570,-0.0528,0.0935,-0.99,392,0,28
2026-07-30 12:07:16:580,-0.0877,0.0896,-1.0019,392,0,28
2026-07-30 12:07:16:590,-0.0838,0.0973,-1.0177,392,0,28
2026-07-30 12:07:16:600,-0.0373,0.082,-1.0058,392,0,28
2026-07-30 12:07:16:610,0.0053,0.0858,-1.0217,404,0,28
2026-07-30 12:07:16:620,0.0131,0.0973,-0.9703,404,0,28
2026-07-30 12:07:16:630,0.0014,0.0858,-0.9387,404,0,28
2026-07-30 12:07:16:640,-0.0024,0.0896,-0.9347,408,0,28
2026-07-30 12:07:16:650,0.0208,0.082,-0.9189,408,0,28
2026-07-30 12:07:16:660,0.0169,0.0896,-0.9387,404,0,28
2026-07-30 12:07:16:670,-0.0024,0.0552,-0.99,404,0,28
2026-07-30 12:07:16:680,-0.0024,0.0667,-0.9979,404,0,28
2026-07-30 12:07:16:690,-0.0102,0.0629,-1.0177,392,0,28
2026-07-30 12:07:16:700,-0.0063,0.0782,-1.0296,392,0,28
2026-07-30 12:07:16:710,0.0169,0.1049,-1.0138,392,0,28
2026-07-30 12:07:16:720,0.0479,0.1011,-1.0098,388,0,28
2026-07-30 12:07:16:730,0.0867,0.1011,-0.99,388,0,28
2026-07-30 12:07:16:740,0.1021,0.1049,-0.9821,388,0,28
2026-07-30 12:07:16:750,0.0905,0.1011,-0.9742,388,0,28
2026-07-30 12:07:16:760,0.0712,0.1011,-0.9663,388,0,28
2026-07-30 12:07:16:770,0.0828,0.0935,-0.9466,404,0,28
2026-07-30 12:07:16:780,0.0867,0.1011,-0.9663,404,0,28
2026-07-30 12:07:16:790,0.0983,0.1087,-0.9782,404,0,28
2026-07-30 12:07:16:800,0.0518,0.1164,-0.99,408,0,28
2026-07-30 12:07:16:810,0.044,0.0744,-0.994,408,0,28
2026-07-30 12:07:16:820,0.0673,0.0973,-0.9505,408,0,28
2026-07-30 12:07:16:830,0.0634,0.1049,-0.9545,408,0,28
2026-07-30 12:07:16:840,0.0673,0.0935,-0.9782,408,0,28
2026-07-30 12:07:16:850,0.0673,0.1202,-0.9545,396,0,28
2026-07-30 12:07:16:860,0.0557,0.1126,-0.9703,396,0,28
2026-07-30 12:07:16:870,0.0518,0.1202,-0.9782,396,0,28
2026-07-30 12:07:16:880,0.0557,0.0973,-0.9979,396,0,28
2026-07-30 12:07:16:890,0.0634,0.1049,-0.994,396,0,28
2026-07-30 12:07:16:900,0.044,0.1087,-0.9861,404,0,28
2026-07-30 12:07:16:910,0.0324,0.1164,-1.0019,404,0,28
2026-07-30 12:07:16:920,0.0169,0.1011,-0.9821,404,0,28
2026-07-30 12:07:16:930,0.0285,0.124,-0.99,416,0,28
2026-07-30 12:07:16:940,0.0363,0.1049,-0.9703,416,0,28
2026-07-30 12:07:16:950,0.0363,0.1164,-0.9782,420,0,28
2026-07-30 12:07:16:960,0.0479,0.1049,-0.9821,420,0,28
2026-07-30 12:07:16:970,0.0518,0.1049,-0.9782,420,0,28
2026-07-30 12:07:16:980,0.0518,0.1202,-0.9861,420,0,28
2026-07-30 12:07:16:990,0.0363,0.1087,-0.99,420,0,28
2026-07-30 12:07:17:000,0.044,0.0896,-0.9782,420,0,28
2026-07-30 12:07:17:010,0.044,0.1049,-0.9663,412,0,28
2026-07-30 12:07:17:020,0.044,0.1087,-0.9782,412,0,28
2026-07-30 12:07:17:030,0.0402,0.1011,-0.9742,412,0,28
2026-07-30 12:07:17:040,0.0169,0.0973,-0.9663,412,0,28
2026-07-30 12:07:17:050,0.0208,0.0896,-0.9703,412,0,28
2026-07-30 12:07:17:060,0.0247,0.0973,-0.9861,420,0,28
2026-07-30 12:07:17:070,0.0285,0.0935,-0.9821,420,0,28
2026-07-30 12:07:17:080,0.0285,0.0744,-0.9821,420,0,28
2026-07-30 12:07:17:090,0.0324,0.082,-0.9782,432,0,28
2026-07-30 12:07:17:100,0.0363,0.0973,-0.9742,432,0,28
2026-07-30 12:07:17:110,0.0402,0.0896,-0.9742,436,0,28
2026-07-30 12:07:17:120,0.0131,0.1049,-0.9821,436,0,28
2026-07-30 12:07:17:130,0.0014,0.0858,-0.994,436,0,28
2026-07-30 12:07:17:140,0.0131,0.0858,-0.99,436,0,28
2026-07-30 12:07:17:150,0.0247,0.0782,-0.9782,436,0,28
2026-07-30 12:07:17:160,0.0247,0.0782,-0.9663,436,0,28
2026-07-30 12:07:17:170,0.0285,0.0896,-0.9663,428,0,28
2026-07-30 12:07:17:180,0.0208,0.0858,-0.9782,428,0,28
2026-07-30 12:07:17:190,0.0169,0.0858,-0.99,432,0,28
2026-07-30 12:07:17:200,0.0014,0.0858,-0.9861,432,0,28
2026-07-30 12:07:17:210,-0.0063,0.082,-0.994,432,0,28
2026-07-30 12:07:17:220,0.0363,0.1049,-0.99,440,0,28
2026-07-30 12:07:17:230,0.0634,0.1011,-0.9782,440,0,28
2026-07-30 12:07:17:240,0.0712,0.1011,-0.9584,440,0,28
2026-07-30 12:07:17:250,0.0905,0.0973,-0.9663,452,0,28
2026-07-30 12:07:17:260,0.0828,0.0973,-0.9584,452,0,28
2026-07-30 12:07:17:270,0.0518,0.0896,-0.9782,460,0,28
2026-07-30 12:07:17:280,0.0208,0.0782,-0.9782,460,0,28
2026-07-30 12:07:17:290,-0.0257,0.0629,-0.9821,460,0,28
2026-07-30 12:07:17:300,-0.0334,0.0705,-0.9821,456,0,28
2026-07-30 12:07:17:310,-0.0489,0.0782,-0.9821,456,0,28
2026-07-30 12:07:17:320,-0.0257,0.1087,-0.9387,456,0,28
2026-07-30 12:07:17:330,0.0789,0.1202,-0.9347,452,0,28
2026-07-30 12:07:17:340,0.1525,0.1126,-0.9387,452,0,28
2026-07-30 12:07:17:350,0.2222,0.1164,-0.994,456,0,28
2026-07-30 12:07:17:360,-0.0489,0.0896,-0.9742,456,0,28
2026-07-30 12:07:17:370,-0.1574,0.0744,-0.9821,456,0,28
2026-07-30 12:07:17:380,-0.2116,0.0514,-0.9782,464,0,28
2026-07-30 12:07:17:390,-0.2504,0.0591,-0.9861,464,0,28
2026-07-30 12:07:17:400,-0.2426,0.0973,-0.9624,480,0,28
2026-07-30 12:07:17:410,-0.1806,0.1278,-0.9466,480,0,28
2026-07-30 12:07:17:420,-0.0993,0.1355,-0.9149,480,0,28
2026-07-30 12:07:17:430,-0.1535,0.1622,-0.911,496,0,28
2026-07-30 12:07:17:440,-0.2387,0.1508,-0.9031,496,0,28
2026-07-30 12:07:17:450,-0.324,0.147,-0.9545,496,0,28
2026-07-30 12:07:17:460,-0.3704,0.1164,-0.9624,488,0,28
2026-07-30 12:07:17:470,-0.3433,0.1011,-0.9426,488,0,28
2026-07-30 12:07:17:480,-0.3549,0.0935,-0.911,480,0,28
2026-07-30 12:07:17:490,-0.3937,0.0935,-0.9149,480,0,28
2026-07-30 12:07:17:500,-0.4247,0.1126,-0.8952,480,0,28
2026-07-30 12:07:17:510,-0.4518,0.124,-0.8991,484,0,28
2026-07-30 12:07:17:520,-0.4518,0.1317,-0.9189,484,0,28
2026-07-30 12:07:17:530,-0.444,0.1278,-0.9229,484,0,28
2026-07-30 12:07:17:540,-0.4402,0.1393,-0.911,496,0,28
2026-07-30 12:07:17:550,-0.4208,0.1317,-0.8991,496,0,28
2026-07-30 12:07:17:560,-0.4828,0.1355,-0.9268,508,0,28
2026-07-30 12:07:17:570,-0.5758,0.1317,-0.9545,508,0,28
2026-07-30 12:07:17:580,-0.6958,0.147,-0.9584,508,0,28
2026-07-30 12:07:17:590,-0.6726,0.1126,-0.99,516,0,28
2026-07-30 12:07:17:600,-0.5138,0.0973,-0.994,516,0,28
2026-07-30 12:07:17:610,-0.3472,0.1317,-0.9545,516,0,28
2026-07-30 12:07:17:620,-0.3627,0.1775,-0.9031,512,0,28
2026-07-30 12:07:17:630,-0.3433,0.2195,-0.8833,512,0,28
2026-07-30 12:07:17:640,-0.2155,0.2081,-0.9031,500,0,28
2026-07-30 12:07:17:650,-0.0567,0.1813,-0.9031,500,0,28
2026-07-30 12:07:17:660,0.0285,0.2043,-0.8794,500,0,28
2026-07-30 12:07:17:670,0.0634,0.1737,-0.9308,512,0,28
2026-07-30 12:07:17:680,0.1099,0.1431,-0.9505,512,0,28
2026-07-30 12:07:17:690,0.1758,0.1508,-0.9545,512,0,28
2026-07-30 12:07:17:700,0.2145,0.1622,-0.9426,512,0,28
2026-07-30 12:07:17:710,0.168,0.1661,-0.9229,512,0,28
2026-07-30 12:07:17:720,0.1021,0.1508,-0.8873,528,0,28
2026-07-30 12:07:17:730,0.1021,0.1546,-0.8833,528,0,28
2026-07-30 12:07:17:740,0.1486,0.1278,-0.8912,528,0,28
2026-07-30 12:07:17:750,0.2261,0.1278,-0.907,520,0,28
2026-07-30 12:07:17:760,0.261,0.1393,-0.9149,520,0,28
2026-07-30 12:07:17:770,0.261,0.1622,-0.9347,512,0,28
2026-07-30 12:07:17:780,0.2648,0.1546,-0.9426,512,0,28
2026-07-30 12:07:17:790,0.2145,0.1546,-0.907,512,0,28
2026-07-30 12:07:17:800,0.2261,0.1584,-0.911,504,0,28
2026-07-30 12:07:17:810,0.2494,0.147,-0.9268,504,0,28
2026-07-30 12:07:17:820,0.2106,0.1546,-0.9426,504,0,28
2026-07-30 12:07:17:830,0.1409,0.1278,-0.9308,504,0,28
2026-07-30 12:07:17:840,0.0673,0.1164,-0.9584,504,0,28
2026-07-30 12:07:17:850,-0.0296,0.0973,-0.9782,528,0,28
2026-07-30 12:07:17:860,-0.0954,0.0935,-0.99,528,0,28
2026-07-30 12:07:17:870,-0.1651,0.0896,-0.9782,528,0,28
2026-07-30 12:07:17:880,-0.2813,0.1087,-0.9703,532,0,28
2026-07-30 12:07:17:890,-0.3588,0.1126,-0.9466,532,0,28
2026-07-30 12:07:17:900,-0.4092,0.1355,-0.9505,532,0,28
2026-07-30 12:07:17:910,-0.4131,0.1355,-0.9308,536,0,28
2026-07-30 12:07:17:920,-0.444,0.1355,-0.9347,536,0,28
2026-07-30 12:07:17:930,-0.4402,0.1317,-0.9505,528,0,28
2026-07-30 12:07:17:940,-0.4518,0.147,-0.907,528,0,28
2026-07-30 12:07:17:950,-0.4518,0.1622,-0.9031,528,0,28
2026-07-30 12:07:17:960,-0.4673,0.1699,-0.8991,524,0,28
2026-07-30 12:07:17:970,-0.5099,0.1928,-0.9347,524,0,28
2026-07-30 12:07:17:980,-0.5138,0.1737,-0.9426,524,0,28
2026-07-30 12:07:17:990,-0.506,0.1737,-0.907,528,0,28
2026-07-30 12:07:18:000,-0.4944,0.1737,-0.9466,528,0,28
2026-07-30 12:07:18:010,-0.3782,0.147,-0.9624,544,0,28
2026-07-30 12:07:18:020,-0.2504,0.1393,-0.9387,544,0,28
2026-07-30 12:07:18:030,-0.1651,0.1813,-0.8991,544,0,28
2026-07-30 12:07:18:040,-0.138,0.2157,-0.8912,544,0,28
2026-07-30 12:07:18:050,-0.1574,0.2195,-0.8873,544,0,28
2026-07-30 12:07:18:060,-0.169,0.2348,-0.8873,532,0,28
2026-07-30 12:07:18:070,-0.2116,0.2081,-0.911,532,0,28
2026-07-30 12:07:18:080,-0.2194,0.189,-0.8991,532,0,28
2026-07-30 12:07:18:090,-0.0915,0.1661,-0.9268,516,0,28
2026-07-30 12:07:18:100,0.0092,0.1699,-0.907,516,0,28
2026-07-30 12:07:18:110,0.0363,0.1622,-0.8675,508,0,28
2026-07-30 12:07:18:120,-0.0373,0.1622,-0.907,508,0,28
2026-07-30 12:07:18:130,-0.1419,0.1622,-0.9387,508,0,28
2026-07-30 12:07:18:140,-0.2,0.1431,-0.9545,516,0,28
2026-07-30 12:07:18:150,-0.2271,0.147,-0.9663,516,0,28
2026-07-30 12:07:18:160,-0.293,0.1049,-0.9742,516,0,28
2026-07-30 12:07:18:170,-0.324,0.1049,-0.9268,528,0,28
2026-07-30 12:07:18:180,-0.3549,0.1087,-0.9189,528,0,28
2026-07-30 12:07:18:190,-0.3937,0.0782,-0.9347,528,0,28
2026-07-30 12:07:18:200,-0.3821,0.1126,-0.9268,528,0,28
2026-07-30 12:07:18:210,-0.3433,0.124,-0.9742,528,0,28
2026-07-30 12:07:18:220,-0.3433,0.1317,-0.994,516,0,28
2026-07-30 12:07:18:230,-0.3278,0.1317,-0.994,516,0,28
2026-07-30 12:07:18:240,-0.3356,0.1317,-0.9387,516,0,28
2026-07-30 12:07:18:250,-0.3898,0.1355,-0.9347,504,0,28
2026-07-30 12:07:18:260,-0.4247,0.1278,-0.9466,504,0,28
2026-07-30 12:07:18:270,-0.444,0.1011,-0.9387,500,0,28
2026-07-30 12:07:18:280,-0.4828,0.0973,-0.9545,500,0,28
2026-07-30 12:07:18:290,-0.5486,0.1164,-1.0217,500,0,28
2026-07-30 12:07:18:300,-0.5254,0.1164,-1.0533,512,0,28
2026-07-30 12:07:18:310,-0.4712,0.1355,-1.0256,512,0,28
2026-07-30 12:07:18:320,-0.444,0.1431,-0.9782,512,0,28
2026-07-30 12:07:18:330,-0.4131,0.147,-0.9545,524,0,28
2026-07-30 12:07:18:340,-0.4285,0.1508,-0.9308,524,0,28
2026-07-30 12:07:18:350,-0.4053,0.147,-0.907,528,0,28
2026-07-30 12:07:18:360,-0.3433,0.147,-0.9031,528,0,28
2026-07-30 12:07:18:370,-0.2116,0.147,-0.8912,528,0,28
2026-07-30 12:07:18:380,-0.1032,0.147,-0.911,512,0,28
2026-07-30 12:07:18:390,-0.107,0.1699,-0.9229,512,0,28
2026-07-30 12:07:18:400,-0.1341,0.1508,-0.8991,500,0,28
2026-07-30 12:07:18:410,-0.169,0.1393,-0.8991,500,0,28
2026-07-30 12:07:18:420,-0.1806,0.1431,-0.9308,500,0,28
2026-07-30 12:07:18:430,-0.1109,0.1355,-0.9584,496,0,28
2026-07-30 12:07:18:440,-0.0722,0.1393,-0.9663,496,0,28
2026-07-30 12:07:18:450,-0.0838,0.1355,-0.9703,496,0,28
2026-07-30 12:07:18:460,-0.0915,0.1202,-0.9505,504,0,28
2026-07-30 12:07:18:470,-0.138,0.1278,-0.9268,504,0,28
2026-07-30 12:07:18:480,-0.1613,0.1049,-0.9308,516,0,28
2026-07-30 12:07:18:490,-0.1341,0.0973,-0.9031,516,0,28
2026-07-30 12:07:18:500,-0.0722,0.124,-0.907,516,0,28
2026-07-30 12:07:18:510,-0.0102,0.147,-0.9149,512,0,28
2026-07-30 12:07:18:520,0.0247,0.147,-0.8991,512,0,28
2026-07-30 12:07:18:530,-0.0102,0.1699,-0.9268,512,0,28
2026-07-30 12:07:18:540,-0.0722,0.147,-0.9189,500,0,28
2026-07-30 12:07:18:550,-0.138,0.1317,-0.8833,500,0,28
2026-07-30 12:07:18:560,-0.1884,0.1431,-0.8912,484,0,28
2026-07-30 12:07:18:570,-0.2116,0.1317,-0.907,484,0,28
2026-07-30 12:07:18:580,-0.2775,0.1164,-0.9426,484,0,28
2026-07-30 12:07:18:590,-0.324,0.1278,-0.9663,480,0,28
2026-07-30 12:07:18:600,-0.3782,0.0896,-0.9624,480,0,28
2026-07-30 12:07:18:610,-0.4208,0.1011,-0.9426,480,0,28
2026-07-30 12:07:18:620,-0.4247,0.1011,-0.9308,484,0,28
2026-07-30 12:07:18:630,-0.4092,0.1049,-0.9426,484,0,28
2026-07-30 12:07:18:640,-0.4053,0.1011,-0.9189,484,0,28
2026-07-30 12:07:18:650,-0.4634,0.0858,-0.8991,484,0,28
2026-07-30 12:07:18:660,-0.5099,0.1011,-0.9149,484,0,28
2026-07-30 12:07:18:670,-0.5099,0.1011,-0.9347,480,0,28
2026-07-30 12:07:18:680,-0.5758,0.1126,-0.9189,480,0,28
2026-07-30 12:07:18:690,-0.599,0.1355,-0.9821,480,0,28
2026-07-30 12:07:18:700,-0.506,0.1011,-0.9387,472,0,28
2026-07-30 12:07:18:710,-0.4247,0.0935,-0.9189,472,0,28
2026-07-30 12:07:18:720,-0.2813,0.0973,-0.8912,472,0,28
2026-07-30 12:07:18:730,-0.2736,0.1049,-0.8478,472,0,28
2026-07-30 12:07:18:740,-0.2232,0.1126,-0.8517,472,0,28
2026-07-30 12:07:18:750,-0.1806,0.1049,-0.8636,476,0,28
2026-07-30 12:07:18:760,-0.0877,0.0935,-0.9229,476,0,28
2026-07-30 12:07:18:770,-0.0412,0.124,-0.9426,476,0,28
2026-07-30 12:07:18:780,0.0247,0.1126,-0.9861,476,0,28
2026-07-30 12:07:18:790,0.1409,0.1164,-0.99,476,0,28
2026-07-30 12:07:18:800,0.2261,0.1278,-0.9979,468,0,28
2026-07-30 12:07:18:810,0.2029,0.1355,-0.9703,468,0,28
2026-07-30 12:07:18:820,0.1409,0.1393,-0.9505,468,0,28
2026-07-30 12:07:18:830,0.137,0.1278,-0.9624,456,0,28
2026-07-30 12:07:18:840,0.1758,0.1202,-0.9189,456,0,28
2026-07-30 12:07:18:850,0.2765,0.1317,-0.9387,456,0,28
2026-07-30 12:07:18:860,0.3423,0.1355,-0.9505,440,0,28
2026-07-30 12:07:18:870,0.2842,0.1431,-0.9624,440,0,28
2026-07-30 12:07:18:880,0.1719,0.1393,-0.9821,436,0,28
2026-07-30 12:07:18:890,0.0712,0.1202,-0.9742,436,0,28
2026-07-30 12:07:18:900,0.0208,0.1126,-0.9149,436,0,28
2026-07-30 12:07:18:910,-0.0838,0.1126,-0.832,452,0,28
2026-07-30 12:07:18:920,-0.1923,0.1164,-0.8161,452,0,28
2026-07-30 12:07:18:930,-0.3549,0.1126,-0.8478,452,0,28
2026-07-30 12:07:18:940,-0.5293,0.0973,-0.9149,452,0,28
2026-07-30 12:07:18:950,-0.6958,0.0591,-0.9663,452,0,28
2026-07-30 12:07:18:960,-0.7888,0.0476,-0.994,436,0,28
2026-07-30 12:07:18:970,-0.7617,0.0285,-0.9861,436,0,28
2026-07-30 12:07:18:980,-0.7075,0.0285,-0.9545,436,0,28
2026-07-30 12:07:18:990,-0.7307,0.0552,-0.8991,420,0,28
2026-07-30 12:07:19:000,-0.8082,0.1049,-0.8754,420,0,28
2026-07-30 12:07:19:010,-0.8275,0.1202,-0.8438,412,0,28
2026-07-30 12:07:19:020,-0.7656,0.1278,-0.8517,412,0,28
2026-07-30 12:07:19:030,-0.5874,0.1202,-0.9031,412,0,28
2026-07-30 12:07:19:040,-0.4208,0.0858,-0.9189,412,0,28
2026-07-30 12:07:19:050,-0.2891,0.0782,-0.9189,412,0,28
2026-07-30 12:07:19:060,-0.2232,0.0858,-0.9347,412,0,28
2026-07-30 12:07:19:070,-0.2194,0.1011,-0.9189,428,0,28
2026-07-30 12:07:19:080,-0.1961,0.1126,-0.9268,428,0,28
2026-07-30 12:07:19:090,-0.1148,0.0973,-0.8952,444,0,28
2026-07-30 12:07:19:100,0.0092,0.1202,-0.8715,444,0,28
2026-07-30 12:07:19:110,0.0944,0.1164,-0.8596,444,0,28
2026-07-30 12:07:19:120,0.1874,0.1049,-0.911,432,0,28
2026-07-30 12:07:19:130,0.2029,0.0973,-0.9189,432,0,28
2026-07-30 12:07:19:140,0.2145,0.0858,-0.8991,432,0,28
2026-07-30 12:07:19:150,0.2881,0.0973,-0.8991,416,0,28
2026-07-30 12:07:19:160,0.3384,0.0858,-0.911,416,0,28
2026-07-30 12:07:19:170,0.2687,0.1164,-0.8596,408,0,28
2026-07-30 12:07:19:180,0.1486,0.0935,-0.907,408,0,28
2026-07-30 12:07:19:190,0.0092,0.0744,-0.8991,408,0,28
2026-07-30 12:07:19:200,-0.1496,0.0705,-0.9347,420,0,28
2026-07-30 12:07:19:210,-0.2465,0.017,-0.9782,420,0,28
2026-07-30 12:07:19:220,-0.4014,0.0209,-0.9742,420,0,28
2026-07-30 12:07:19:230,-0.4905,0.017,-0.9782,424,0,28
2026-07-30 12:07:19:240,-0.5215,0.0285,-0.9663,424,0,28
2026-07-30 12:07:19:250,-0.5099,0.0438,-0.9545,424,0,28
2026-07-30 12:07:19:260,-0.4673,0.0705,-0.9268,424,0,28
2026-07-30 12:07:19:270,-0.4402,0.082,-0.8873,424,0,28
2026-07-30 12:07:19:280,-0.475,0.1011,-0.8636,416,0,28
2026-07-30 12:07:19:290,-0.5138,0.1164,-0.8675,416,0,28
2026-07-30 12:07:19:300,-0.4983,0.1164,-0.9308,416,0,28
2026-07-30 12:07:19:310,-0.4673,0.0896,-0.9268,408,0,28
2026-07-30 12:07:19:320,-0.5099,0.0858,-0.9505,408,0,28
2026-07-30 12:07:19:330,-0.5021,0.0782,-0.9782,404,0,28
2026-07-30 12:07:19:340,-0.4557,0.0744,-0.9979,404,0,28
2026-07-30 12:07:19:350,-0.3976,0.082,-0.9545,404,0,28
2026-07-30 12:07:19:360,-0.2968,0.0705,-0.9387,412,0,28
2026-07-30 12:07:19:370,-0.2039,0.0935,-0.9189,412,0,28
2026-07-30 12:07:19:380,-0.0993,0.0858,-0.8833,424,0,28
2026-07-30 12:07:19:390,-0.0141,0.0935,-0.907,424,0,28
2026-07-30 12:07:19:400,0.044,0.082,-0.9268,424,0,28
2026-07-30 12:07:19:410,0.106,0.082,-0.9347,432,0,28
2026-07-30 12:07:19:420,0.1254,0.082,-0.9229,432,0,28
2026-07-30 12:07:19:430,0.2184,0.0935,-0.9347,432,0,28
2026-07-30 12:07:19:440,0.261,0.0705,-0.907,424,0,28
2026-07-30 12:07:19:450,0.1758,0.0705,-0.8636,424,0,28
2026-07-30 12:07:19:460,-0.0024,0.0361,-0.8754,420,0,28
2026-07-30 12:07:19:470,-0.1651,0.0361,-0.9624,420,0,28
2026-07-30 12:07:19:480,-0.1961,0.0323,-1.0256,420,0,28
2026-07-30 12:07:19:490,-0.138,0.0285,-1.0454,416,0,28
2026-07-30 12:07:19:500,-0.1496,0.0514,-1.0335,416,0,28
2026-07-30 12:07:19:510,-0.2194,0.0858,-1.0098,416,0,28
2026-07-30 12:07:19:520,-0.3162,0.1011,-0.9624,416,0,28
2026-07-30 12:07:19:530,-0.4324,0.0896,-0.9308,416,0,28
2026-07-30 12:07:19:540,-0.5021,0.0935,-0.911,416,0,28
2026-07-30 12:07:19:550,-0.5331,0.0858,-0.9149,416,0,28
2026-07-30 12:07:19:560,-0.506,0.0858,-0.9545,416,0,28
2026-07-30 12:07:19:570,-0.599,0.0896,-0.9268,420,0,28
2026-07-30 12:07:19:580,-0.6339,0.1087,-0.9861,420,0,28
2026-07-30 12:07:19:590,-0.5951,0.0935,-0.9861,420,0,28
2026-07-30 12:07:19:600,-0.475,0.082,-1.0098,416,0,28
2026-07-30 12:07:19:610,-0.3511,0.0858,-0.9861,416,0,28
2026-07-30 12:07:19:620,-0.3201,0.1164,-0.9387,416,0,28
2026-07-30 12:07:19:630,-0.2697,0.1355,-0.911,416,0,28
2026-07-30 12:07:19:640,-0.1613,0.1355,-0.8754,416,0,28
2026-07-30 12:07:19:650,0.0053,0.1431,-0.8596,420,0,28
2026-07-30 12:07:19:660,0.1331,0.147,-0.8596,420,0,28
2026-07-30 12:07:19:670,0.1758,0.1393,-0.8359,420,0,28
2026-07-30 12:07:19:680,0.23,0.124,-0.8873,424,0,28
2026-07-30 12:07:19:690,0.2184,0.1049,-0.907,424,0,28
2026-07-30 12:07:19:700,0.0944,0.0858,-0.9149,432,0,28
2026-07-30 12:07:19:710,-0.0179,0.0591,-0.9347,432,0,28
2026-07-30 12:07:19:720,-0.1225,0.0476,-0.9466,432,0,28
2026-07-30 12:07:19:730,-0.1187,0.0476,-0.9545,440,0,28
2026-07-30 12:07:19:740,-0.169,0.0552,-0.9663,440,0,28
2026-07-30 12:07:19:750,-0.324,0.082,-0.9347,440,0,28
2026-07-30 12:07:19:760,-0.4518,0.0744,-0.9584,432,0,28
2026-07-30 12:07:19:770,-0.4789,0.0438,-0.9703,432,0,28
2026-07-30 12:07:19:780,-0.4518,0.0744,-0.9663,420,0,28
2026-07-30 12:07:19:790,-0.4285,0.0782,-0.9545,420,0,28
2026-07-30 12:07:19:800,-0.4131,0.0935,-0.9505,420,0,28
2026-07-30 12:07:19:810,-0.3976,0.1126,-0.9308,412,0,28
2026-07-30 12:07:19:820,-0.4053,0.1202,-0.907,412,0,28
2026-07-30 12:07:19:830,-0.4828,0.124,-0.8754,416,0,28
2026-07-30 12:07:19:840,-0.5138,0.1049,-0.9229,416,0,28
2026-07-30 12:07:19:850,-0.5564,0.1011,-0.9189,416,0,28
2026-07-30 12:07:19:860,-0.5293,0.0782,-0.9426,428,0,28
2026-07-30 12:07:19:870,-0.4557,0.0858,-0.9979,428,0,28
2026-07-30 12:07:19:880,-0.3549,0.0973,-0.9703,428,0,28
2026-07-30 12:07:19:890,-0.2697,0.0973,-0.9466,440,0,28
2026-07-30 12:07:19:900,-0.231,0.124,-0.9189,440,0,28
2026-07-30 12:07:19:910,-0.169,0.1431,-0.8873,444,0,28
2026-07-30 12:07:19:920,-0.0412,0.1355,-0.8952,444,0,28
2026-07-30 12:07:19:930,0.1176,0.1393,-0.907,444,0,28
2026-07-30 12:07:19:940,0.23,0.1278,-0.9308,428,0,28
2026-07-30 12:07:19:950,0.2726,0.1202,-0.9466,428,0,28
2026-07-30 12:07:19:960,0.1835,0.0935,-0.9387,428,0,28
2026-07-30 12:07:19:970,-0.0373,0.0935,-0.832,428,0,28
2026-07-30 12:07:19:980,-0.2659,0.0705,-0.8478,428,0,28
2026-07-30 12:07:19:990,-0.444,0.0744,-0.907,440,0,28
2026-07-30 12:07:20:000,-0.4789,0.0705,-0.9703,440,0,28
2026-07-30 12:07:20:010,-0.4208,0.0476,-1.0256,440,0,28
2026-07-30 12:07:20:020,-0.3666,0.0782,-1.0058,448,0,28
2026-07-30 12:07:20:030,-0.3085,0.1087,-0.9979,448,0,28
2026-07-30 12:07:20:040,-0.3046,0.1202,-0.9584,448,0,28
2026-07-30 12:07:20:050,-0.3317,0.124,-0.9347,444,0,28
2026-07-30 12:07:20:060,-0.3278,0.1278,-0.9031,444,0,28
2026-07-30 12:07:20:070,-0.3395,0.1317,-0.8754,432,0,28
2026-07-30 12:07:20:080,-0.3976,0.1393,-0.8675,432,0,28
2026-07-30 12:07:20:090,-0.4479,0.1508,-0.8596,432,0,28
2026-07-30 12:07:20:100,-0.537,0.1508,-0.9149,420,0,28
2026-07-30 12:07:20:110,-0.5719,0.1011,-0.9466,420,0,28
2026-07-30 12:07:20:120,-0.6029,0.1011,-0.9426,420,0,28
2026-07-30 12:07:20:130,-0.6416,0.124,-0.9584,420,0,28
2026-07-30 12:07:20:140,-0.5719,0.1049,-0.9584,420,0,28
2026-07-30 12:07:20:150,-0.4634,0.1087,-0.9229,436,0,28
2026-07-30 12:07:20:160,-0.3821,0.124,-0.907,436,0,28
2026-07-30 12:07:20:170,-0.3046,0.1431,-0.8873,436,0,28
2026-07-30 12:07:20:180,-0.231,0.1508,-0.8952,460,0,28
2026-07-30 12:07:20:190,-0.1768,0.1584,-0.8873,460,0,28
2026-07-30 12:07:20:200,-0.1109,0.1431,-0.8715,460,0,28
2026-07-30 12:07:20:210,-0.0683,0.1546,-0.8873,464,0,28
2026-07-30 12:07:20:220,-0.0334,0.1355,-0.8952,464,0,28
2026-07-30 12:07:20:230,0.0712,0.1317,-0.911,448,0,28
2026-07-30 12:07:20:240,0.1603,0.1202,-0.9189,448,0,28
2026-07-30 12:07:20:250,0.0905,0.1164,-0.9031,448,0,28
2026-07-30 12:07:20:260,-0.0334,0.1087,-0.9347,440,0,28
2026-07-30 12:07:20:270,-0.1535,0.1126,-0.9149,440,0,28
2026-07-30 12:07:20:280,-0.2155,0.0935,-0.9545,448,0,28
2026-07-30 12:07:20:290,-0.3007,0.0973,-0.9703,448,0,28
2026-07-30 12:07:20:300,-0.3085,0.0973,-0.9782,448,0,28
2026-07-30 12:07:20:310,-0.3356,0.0935,-0.994,460,0,28
